recording id,timestamp [ns],gyro x [deg/s],gyro y [deg/s],gyro z [deg/s],acceleration x [g],acceleration y [g],acceleration z [g],roll [deg],pitch [deg],yaw [deg],quaternion w,quaternion x,quaternion y,quaternion z
05b1e954-e0de-4e6a-bec5-f040535b11d2,1747059631638525443,-1.9550323,1.0471344,-7.413864,0.11279297,-0.5214844,0.85693353,-7.060103653346496,-31.248824355944446,-129.16496981905715,0.42754474,-0.16893736,0.2173477,-0.86106074
05b1e954-e0de-4e6a-bec5-f040535b11d2,1747059631646130443,-2.2602081,1.1081696,-7.3490143,0.095703125,-0.5288086,0.8583984,-7.090674772630837,-31.259320211445385,-129.24205772840145,0.42701778,-0.16905725,0.21742758,-0.86127853
05b1e954-e0de-4e6a-bec5-f040535b11d2,1747059631653735443,-2.6283264,0.8010864,-7.3490143,0.107910156,-0.5371094,0.8598632,-7.119762433778846,-31.274601665804354,-129.3196389120935,0.42648163,-0.16918154,0.21755053,-0.8614887
05b1e954-e0de-4e6a-bec5-f040535b11d2,1747059631661340443,-2.3212433,1.0471344,-6.9828033,0.092285156,-0.5341797,0.86474603,-7.1491790610968895,-31.289611560187485,-129.3947105331655,0.42596507,-0.16931202,0.21766673,-0.86168927
05b1e954-e0de-4e6a-bec5-f040535b11d2,1747059631671548443,-2.0771027,0.98609924,-6.860733,0.09033203,-0.53271484,0.87451166,-7.170648127471802,-31.302859196596543,-129.4649919678208,0.4254703,-0.16938563,0.21779212,-0.8618875
05b1e954-e0de-4e6a-bec5-f040535b11d2,1747059631681756443,-1.6498566,0.98609924,-6.6165924,0.09033203,-0.53027344,0.868164,-7.188754740693536,-31.312005875898233,-129.53177789993964,0.4249975,-0.16942637,0.21789362,-0.8620871
05b1e954-e0de-4e6a-bec5-f040535b11d2,1747059631691964443,-1.5296936,1.2321472,-6.254196,0.08935547,-0.53271484,0.8652344,-7.205064069430423,-31.31840714399563,-129.59435545219074,0.42455435,-0.16945209,0.21797466,-0.8622799
05b1e954-e0de-4e6a-bec5-f040535b11d2,1747059631699689443,-1.1005402,0.86402893,-5.2776337,0.087402344,-0.5341797,0.85693353,-7.230232499138539,-31.336588975042552,-129.7062653025025,0.4237505,-0.16949095,0.21818614,-0.8626141
05b1e954-e0de-4e6a-bec5-f040535b11d2,1747059631707414443,-1.0414124,1.2893677,-4.846573,0.10205078,-0.54345703,0.8623046,-7.243291925913683,-31.34326418547611,-129.75808901613692,0.42338175,-0.16951345,0.21826562,-0.8627706
05b1e954-e0de-4e6a-bec5-f040535b11d2,1747059631715139443,-0.6752014,1.1062622,-4.480362,0.08935547,-0.5263672,0.8574218,-7.249509194038007,-31.345670805398807,-129.8013063330362,0.42306694,-0.16948618,0.21832502,-0.8629154
05b1e954-e0de-4e6a-bec5-f040535b11d2,1747059631722864443,-0.30708313,0.86402893,-4.1179657,0.099609375,-0.5415039,0.8710937,-7.257748375932284,-31.344690016048677,-129.8414866826576,0.42278054,-0.16946831,0.21834652,-0.8630538
05b1e954-e0de-4e6a-bec5-f040535b11d2,1747059631734642443,-0.3681183,0.86402893,-3.81279,0.087402344,-0.5449219,0.8706054,-7.262946279165008,-31.3460299022649,-129.87746128453696,0.4225188,-0.16944349,0.21839081,-0.86317563
05b1e954-e0de-4e6a-bec5-f040535b11d2,1747059631746420443,0.30136108,1.2893677,-3.1414032,0.09667969,-0.53564453,0.868164,-7.264526510343079,-31.346206770236066,-129.90857315824942,0.42228734,-0.1693967,0.21843234,-0.86328757
05b1e954-e0de-4e6a-bec5-f040535b11d2,1747059631758198443,0.059127808,1.1692047,-3.0155182,0.091308594,-0.5390625,0.87207025,-7.2635711757562476,-31.343372646952197,-129.93440793754596,0.42209235,-0.16933058,0.21845233,-0.86339086
05b1e954-e0de-4e6a-bec5-f040535b11d2,1747059631765902443,0.24223328,1.2302399,-2.8362274,0.09863281,-0.5473633,0.86914057,-7.26301697858258,-31.345489531145873,-129.96035753396345,0.42189467,-0.16928415,0.21850893,-0.86348224
05b1e954-e0de-4e6a-bec5-f040535b11d2,1747059631773606443,0.66947937,1.291275,-2.4051666,0.10107422,-0.53564453,0.883789,-7.259390036119536,-31.339320082376958,-129.98225813630083,0.42172587,-0.16919401,0.21850735,-0.86358273
05b1e954-e0de-4e6a-bec5-f040535b11d2,1747059631781310443,0.9727478,1.2893677,-1.9817352,0.09277344,-0.5361328,0.887207,-7.250831338527882,-31.328058515051268,-129.9979275078925,0.42159724,-0.16906124,0.21847568,-0.8636796
05b1e954-e0de-4e6a-bec5-f040535b11d2,1747059631789014443,1.461029,1.2893677,-1.6765594,0.095214844,-0.5332031,0.8793945,-7.240925444392661,-31.313376472175303,-130.01025787264206,0.42149293,-0.16891302,0.2184178,-0.8637741
05b1e954-e0de-4e6a-bec5-f040535b11d2,1747059631799181443,1.6460419,1.1692047,-1.2454987,0.10253906,-0.54003906,0.8779296,-7.2291539469861545,-31.301166345674595,-130.0196872692795,0.42140567,-0.1687647,0.2183814,-0.8638549
05b1e954-e0de-4e6a-bec5-f040535b11d2,1747059631809348443,1.8920898,0.92315674,-1.4286041,0.096191406,-0.53515625,0.85937494,-7.220900525433949,-31.28354664054247,-130.02772113709895,0.4213384,-0.16862711,0.21828854,-0.86393803
05b1e954-e0de-4e6a-bec5-f040535b11d2,1747059631819515443,2.1343231,0.98609924,-0.69999695,0.09765625,-0.5395508,0.8598632,-7.213357486761402,-31.26736266012195,-130.0335795725045,0.42128816,-0.16850393,0.21820085,-0.8640087
05b1e954-e0de-4e6a-bec5-f040535b11d2,1747059631829949443,2.0122528,0.8029938,-0.45204163,0.09277344,-0.52246094,0.8549804,-7.202663967755788,-31.25336017326841,-130.0346686624362,0.42126676,-0.1683735,0.21813443,-0.86406136
05b1e954-e0de-4e6a-bec5-f040535b11d2,1747059631840384443,1.8291473,0.8029938,-0.3299713,0.099609375,-0.52490234,0.8627929,-7.188140867967187,-31.236596342020864,-130.0315972511434,0.42127088,-0.16821268,0.21805482,-0.86411077
05b1e954-e0de-4e6a-bec5-f040535b11d2,1747059631850819443,1.8901825,0.497818,-0.39100647,0.106933594,-0.5185547,0.871582,-7.1815769407255035,-31.21949042260624,-130.03166103779694,0.42126667,-0.16810474,0.21794792,-0.8641608
05b1e954-e0de-4e6a-bec5-f040535b11d2,1747059631859845443,1.707077,0.55885315,0.27656555,0.1015625,-0.515625,0.85937494,-7.159856279477328,-31.178218475499715,-130.01953372994595,0.42133802,-0.16782323,0.21769363,-0.8642448
05b1e954-e0de-4e6a-bec5-f040535b11d2,1747059631868871443,1.8920898,0.61798096,0.82969666,0.09423828,-0.53271484,0.85693353,-7.143265886033069,-31.164083315701205,-130.00739823946668,0.4214053,-0.16767292,0.21762851,-0.8642576
05b1e954-e0de-4e6a-bec5-f040535b11d2,1747059631877897443,1.8291473,0.497818,1.253128,0.095703125,-0.5083008,0.85546875,-7.1233027916327,-31.144029377787838,-129.98999871465142,0.42150894,-0.16748694,0.21752277,-0.86426973
05b1e954-e0de-4e6a-bec5-f040535b11d2,1747059631886923443,2.0122528,0.43678284,1.6841888,0.107910156,-0.5131836,0.8754882,-7.108330611344978,-31.122295691299808,-129.97003588595484,0.42164227,-0.16733766,0.21738209,-0.86426896
05b1e954-e0de-4e6a-bec5-f040535b11d2,1747059631896760443,2.1953583,0.19264221,2.17247,0.099121094,-0.5161133,0.8652344,-7.094794963927696,-31.0992699968246,-129.94648008906015,0.42180616,-0.16720155,0.21722104,-0.86425585
05b1e954-e0de-4e6a-bec5-f040535b11d2,1747059631906597443,2.4375916,-0.05340576,1.9893646,0.11035156,-0.50878906,0.871582,-7.0815911877801625,-31.072397340418675,-129.92175231435226,0.4219815,-0.16705692,0.21702762,-0.8642468
05b1e954-e0de-4e6a-bec5-f040535b11d2,1747059631916434443,2.9888153,-0.3566742,2.17247,0.10644531,-0.5107422,0.86669916,-7.073445486948954,-31.04055337646118,-129.89752837329434,0.42216527,-0.16693237,0.21677828,-0.86424375
05b1e954-e0de-4e6a-bec5-f040535b11d2,1747059631926893443,3.1719208,-0.3566742,2.3555756,0.12695312,-0.51123047,0.86181635,-7.0606263608685085,-31.007846991254496,-129.8705466056226,0.42236143,-0.1667747,0.21653557,-0.86423916
05b1e954-e0de-4e6a-bec5-f040535b11d2,1747059631937351443,2.9258728,-0.6637573,2.0503998,0.11669922,-0.50634766,0.86132807,-7.058358138278179,-30.980729004368303,-129.84776761758582,0.42254296,-0.1667077,0.21630296,-0.8642216
05b1e954-e0de-4e6a-bec5-f040535b11d2,1747059631947809443,2.8057098,-0.84495544,1.9245148,0.11328125,-0.51123047,0.8413086,-7.0542003432901526,-30.953549262242607,-129.82516741731914,0.42271963,-0.1666258,0.21607715,-0.8642075
05b1e954-e0de-4e6a-bec5-f040535b11d2,1747059631958066443,1.2798309,-0.7839203,2.1076202,0.115234375,-0.50683594,0.8476562,-7.055691166244442,-30.920745702075365,-129.78505031420332,0.4230419,-0.16660008,0.21576194,-0.8641335
05b1e954-e0de-4e6a-bec5-f040535b11d2,1747059631968322443,1.0948181,-0.6637573,1.4362335,0.11425781,-0.5024414,0.8408203,-7.0557061923817646,-30.912330725121773,-129.7681834753888,0.4231735,-0.16660306,0.2156729,-0.86409074
05b1e954-e0de-4e6a-bec5-f040535b11d2,1747059631978578443,0.4234314,-0.17547607,1.1959076,0.12841797,-0.5053711,0.8476562,-7.066725920470458,-30.90898523858252,-129.77384202256047,0.42315328,-0.16666402,0.2156148,-0.8641034
05b1e954-e0de-4e6a-bec5-f040535b11d2,1747059631986502443,-0.12397766,-0.17356873,0.27656555,0.12207031,-0.5083008,0.8393554,-7.070253190277016,-30.908539183527633,-129.7756583494352,0.42314646,-0.16668567,0.215601,-0.864106
05b1e954-e0de-4e6a-bec5-f040535b11d2,1747059631994427443,-1.2226105,0.55885315,0.58555603,0.12792969,-0.5161133,0.8457031,-7.074067566713503,-30.912540516848,-129.77724771271542,0.42313957,-0.16672517,0.21561988,-0.864097
05b1e954-e0de-4e6a-bec5-f040535b11d2,1747059632002352443,-1.5888214,0.43678284,-0.14686584,0.122558594,-0.52490234,0.8476562,-7.082463227606904,-30.919998988986674,-129.78384145063356,0.4231018,-0.16680168,0.21565562,-0.8640918
05b1e954-e0de-4e6a-bec5-f040535b11d2,1747059632010277443,-2.6893616,0.74386597,-0.7572174,0.11279297,-0.5229492,0.8476562,-7.089319424642887,-30.945509834043072,-129.79801657486445,0.4229947,-0.16691422,0.21584643,-0.8640749
05b1e954-e0de-4e6a-bec5-f040535b11d2,1747059632021694443,-3.0536652,1.0471344,-1.1882782,0.103027344,-0.5292969,0.8549804,-7.091674126248755,-30.972354174045005,-129.81383247417736,0.42286605,-0.16699424,0.21606648,-0.8640674
05b1e954-e0de-4e6a-bec5-f040535b11d2,1747059632033111443,-3.786087,1.1692047,-1.9168854,0.111816406,-0.5307617,0.8627929,-7.089035942778612,-31.005192009995035,-129.8337291527346,0.42269412,-0.1670494,0.21635684,-0.8640682
05b1e954-e0de-4e6a-bec5-f040535b11d2,1747059632044528443,-3.4828186,1.4724731,-2.4051666,0.123046875,-0.5258789,0.85937494,-7.092687905261959,-31.036836357476304,-129.86272614390742,0.42246604,-0.16713057,0.21662815,-0.8640961
05b1e954-e0de-4e6a-bec5-f040535b11d2,1747059632054740443,-3.4828186,1.2321472,-2.954483,0.09863281,-0.53466797,0.87255853,-7.1020425448567375,-31.09931377450764,-129.92721337269248,0.42196518,-0.16729288,0.21716657,-0.86417425
05b1e954-e0de-4e6a-bec5-f040535b11d2,1747059632064950443,-3.7879944,2.0828247,-3.3817291,0.103515625,-0.5336914,0.8608398,-7.099986871419071,-31.131108094921455,-129.96207968693568,0.4216819,-0.16731994,0.21746872,-0.8642313
05b1e954-e0de-4e6a-bec5-f040535b11d2,1747059632075160443,-3.1776428,1.8997192,-3.74794,0.104003906,-0.54052734,0.8466796,-7.102358320920412,-31.162583755939664,-130.00158788953004,0.42137218,-0.1673703,0.21775895,-0.86429954
05b1e954-e0de-4e6a-bec5-f040535b11d2,1747059632082952443,-2.9315948,2.023697,-3.81279,0.09033203,-0.5498047,0.8735351,-7.103310908520865,-31.1872679896917,-130.04168993465908,0.42105874,-0.16738547,0.21800324,-0.86438775
05b1e954-e0de-4e6a-bec5-f040535b11d2,1747059632090744443,-2.506256,2.0828247,-4.175186,0.088378906,-0.53564453,0.8813476,-7.100607479363965,-31.209234975989492,-130.08303346681387,0.42073035,-0.16736127,0.21824196,-0.86449206
05b1e954-e0de-4e6a-bec5-f040535b11d2,1747059632098536443,-1.5888214,1.5964508,-3.81279,0.100097656,-0.54296875,0.87695307,-7.095568505879001,-31.223257606236476,-130.11902206500042,0.420442,-0.16730246,0.21842052,-0.86459863
05b1e954-e0de-4e6a-bec5-f040535b11d2,1747059632106328443,-0.6122589,1.4743805,-3.8700104,0.084472656,-0.5385742,0.8686523,-7.093925483210951,-31.227433932608346,-130.1550267902019,0.42016503,-0.16723564,0.21851113,-0.8647233
05b1e954-e0de-4e6a-bec5-f040535b11d2,1747059632118047443,0.059127808,1.2302399,-3.2596588,0.08496094,-0.5463867,0.86718744,-7.087882586726923,-31.227190634822925,-130.18538063756233,0.41992456,-0.16713132,0.2185757,-0.86484396
05b1e954-e0de-4e6a-bec5-f040535b11d2,1747059632129766443,0.30136108,0.9841919,-2.954483,0.09375,-0.53125,0.86718744,-7.082844211035977,-31.227554815243682,-130.21126139434955,0.41971943,-0.16704516,0.2186347,-0.8649453
05b1e954-e0de-4e6a-bec5-f040535b11d2,1747059632141485443,0.66947937,0.8029938,-2.653122,0.08300781,-0.5292969,0.86425775,-7.082594431808561,-31.219654819984246,-130.23483051896204,0.4195451,-0.16697146,0.21860936,-0.8650505
05b1e954-e0de-4e6a-bec5-f040535b11d2,1747059632151758443,1.5239716,-0.11253357,-1.4286041,0.07763672,-0.5449219,0.86962885,-7.07505105200108,-31.200128115224796,-130.25699337685225,0.41937345,-0.1668059,0.21851945,-0.86518836
05b1e954-e0de-4e6a-bec5-f040535b11d2,1747059632162032443,1.7662048,-0.7209778,-0.9403229,0.09033203,-0.53564453,0.87255853,-7.076812150710654,-31.185775990376616,-130.26201400261345,0.41934627,-0.16676086,0.2184102,-0.8652378
05b1e954-e0de-4e6a-bec5-f040535b11d2,1747059632172306443,2.0122528,-1.0280609,-0.39100647,0.09082031,-0.5229492,0.86035156,-7.077926637991697,-31.170292261666592,-130.26042223968278,0.4193684,-0.16671972,0.21828501,-0.8652666
05b1e954-e0de-4e6a-bec5-f040535b11d2,1747059632179961443,1.7662048,-1.2130737,-0.14686584,0.09814453,-0.52978516,0.8476562,-7.078810100658507,-31.153874505663563,-130.2564128084422,0.41940877,-0.16667825,0.21814997,-0.8652891
05b1e954-e0de-4e6a-bec5-f040535b11d2,1747059632187617443,2.0122528,-1.0280609,0.40245056,0.104003906,-0.5341797,0.8466796,-7.078929658037814,-31.14099031410698,-130.2480529857782,0.4194787,-0.16665128,0.21803851,-0.86528844
05b1e954-e0de-4e6a-bec5-f040535b11d2,1747059632195273443,1.4629364,-1.5773773,0.7648468,0.1015625,-0.53027344,0.8686523,-7.0834682543827,-31.13094934326977,-130.23739845441867,0.41957295,-0.1666717,0.21792936,-0.8652663
05b1e954-e0de-4e6a-bec5-f040535b11d2,1747059632202929443,1.6460419,-1.455307,1.1310577,0.11035156,-0.5263672,0.8579101,-7.08532332905764,-31.117839040635495,-130.22225727979608,0.41969752,-0.16666992,0.21779996,-0.86523885
05b1e954-e0de-4e6a-bec5-f040535b11d2,1747059632214731443,1.707077,-1.2722015,1.5621185,0.10546875,-0.5341797,0.86132807,-7.09077986866665,-31.10750535467114,-130.20610856629813,0.41983512,-0.16670667,0.2176772,-0.86519593
05b1e954-e0de-4e6a-bec5-f040535b11d2,1747059632226533443,1.707077,-1.1501312,1.3179779,0.12158203,-0.5263672,0.86669916,-7.09495648375609,-31.093945773824284,-130.19062073604377,0.4199669,-0.16672148,0.21753533,-0.86516476
05b1e954-e0de-4e6a-bec5-f040535b11d2,1747059632238335443,1.7662048,-1.1520386,1.619339,0.11425781,-0.51904297,0.8657226,-7.100273888835141,-31.080386915054397,-130.17427994983802,0.4201073,-0.1667465,0.21738805,-0.8651288
05b1e954-e0de-4e6a-bec5-f040535b11d2,1747059632248729443,1.1577606,-0.6008148,1.3179779,0.10839844,-0.52441406,0.86425775,-7.102612270687379,-31.057683607563767,-130.14515582256942,0.4203432,-0.16674207,0.21716292,-0.8650716
05b1e954-e0de-4e6a-bec5-f040535b11d2,1747059632259124443,1.0948181,-0.541687,1.1959076,0.115234375,-0.5180664,0.8735351,-7.10557450605473,-31.046666472790356,-130.1329943784324,0.42044625,-0.16674995,0.21704985,-0.8650484
05b1e954-e0de-4e6a-bec5-f040535b11d2,1747059632269519443,1.2187958,-0.4787445,0.82969666,0.122558594,-0.5239258,0.8627929,-7.109370302123274,-31.033876551927072,-130.12367951322915,0.42053026,-0.16675267,0.21692425,-0.8650385
05b1e954-e0de-4e6a-bec5-f040535b11d2,1747059632279754443,1.2779236,-0.35858154,0.5245209,0.11767578,-0.51660156,0.8686523,-7.112623600783682,-31.022394656837943,-130.11708006450914,0.4205921,-0.1667506,0.21681464,-0.86503637
05b1e954-e0de-4e6a-bec5-f040535b11d2,1747059632289989443,1.4038086,-0.541687,0.09727478,0.123535156,-0.5292969,0.87255853,-7.119018796230873,-31.01325331079144,-130.1181234476912,0.42060098,-0.16676575,0.21672256,-0.8650522
05b1e954-e0de-4e6a-bec5-f040535b11d2,1747059632300224443,1.5239716,-0.3566742,-0.26893616,0.122558594,-0.5126953,0.8701171,-7.125857032786322,-31.003883784428485,-130.1211280910009,0.42059597,-0.16677976,0.21662995,-0.8650751
05b1e954-e0de-4e6a-bec5-f040535b11d2,1747059632307960443,1.5850067,-0.7839203,-0.39100647,0.111816406,-0.5131836,0.8754882,-7.145118037049044,-30.97250768621948,-130.1270182282614,0.42060378,-0.16680713,0.21632712,-0.8651418
05b1e954-e0de-4e6a-bec5-f040535b11d2,1747059632315697443,2.1953583,-0.41770935,-0.7572174,0.10888672,-0.5336914,0.86718744,-7.155521338600273,-30.95432548503746,-130.1331884939505,0.42058602,-0.16681209,0.21615842,-0.8651917
05b1e954-e0de-4e6a-bec5-f040535b11d2,1747059632323434443,2.1953583,-0.4787445,-0.9403229,0.115722656,-0.50683594,0.88037103,-7.1625597090694555,-30.925618224606776,-130.13948362480025,0.4205662,-0.16675557,0.21592148,-0.8652714
05b1e954-e0de-4e6a-bec5-f040535b11d2,1747059632331171443,2.1953583,-0.4787445,-0.8792877,0.10498047,-0.5058594,0.8710937,-7.168744910980891,-30.89809204007561,-130.14591908980083,0.42054304,-0.16669638,0.2156969,-0.86535
05b1e954-e0de-4e6a-bec5-f040535b11d2,1747059632341718443,2.6226044,-0.41770935,-1.3065338,0.10058594,-0.5053711,0.8813476,-7.175902648250493,-30.866638264942242,-130.1546168339423,0.42050657,-0.16662695,0.2154419,-0.86544466
05b1e954-e0de-4e6a-bec5-f040535b11d2,1747059632352265443,2.5596619,-0.2975464,-1.3065338,0.111816406,-0.5078125,0.8706054,-7.18351376688613,-30.836804040813156,-130.1652100935197,0.42045572,-0.16656291,0.21520038,-0.86554176
05b1e954-e0de-4e6a-bec5-f040535b11d2,1747059632362812443,2.3174286,-0.4787445,-1.1234283,0.103027344,-0.5136719,0.8623046,-7.190691809671026,-30.812314732467996,-130.1719199077216,0.4204307,-0.16652115,0.21499582,-0.8656128
05b1e954-e0de-4e6a-bec5-f040535b11d2,1747059632374211443,2.4375916,-0.541687,-0.8792877,0.10107422,-0.5083008,0.87255853,-7.195330158193861,-30.78368958424913,-130.17776301089134,0.42040944,-0.16644776,0.21476755,-0.8656939
05b1e954-e0de-4e6a-bec5-f040535b11d2,1747059632385610443,2.1972656,-0.541687,-0.81825256,0.10546875,-0.5053711,0.86425775,-7.2018223945234965,-30.757549498255734,-130.18260047924275,0.42039797,-0.16639873,0.21455006,-0.8657628
05b1e954-e0de-4e6a-bec5-f040535b11d2,1747059632397009443,1.7662048,-0.6637573,-0.26893616,0.10839844,-0.50878906,0.8701171,-7.207032214351107,-30.7351765914156,-130.18299247537846,0.4204158,-0.16636118,0.21435975,-0.86580855
05b1e954-e0de-4e6a-bec5-f040535b11d2,1747059632407334443,1.7662048,-1.0299683,0.09727478,0.09814453,-0.5097656,0.8735351,-7.2152295405002045,-30.69381040168622,-130.17737647059016,0.42049387,-0.16629274,0.21400389,-0.8658718
05b1e954-e0de-4e6a-bec5-f040535b11d2,1747059632417660443,1.2187958,-0.7839203,0.45967102,0.106933594,-0.50390625,0.87499994,-7.218586534379473,-30.67848355216337,-130.17195427639442,0.42054862,-0.16627602,0.21386601,-0.86588246
05b1e954-e0de-4e6a-bec5-f040535b11d2,1747059632427986443,0.97465515,-0.23460388,0.45967102,0.11279297,-0.50683594,0.86962885,-7.219589660470549,-30.672548618826976,-130.17246373543182,0.42054954,-0.16626243,0.21381749,-0.8658966
05b1e954-e0de-4e6a-bec5-f040535b11d2,1747059632435728443,0.4234314,-0.541687,0.70762634,0.110839844,-0.50927734,0.86425775,-7.220752874786864,-30.666286012597972,-130.17306055438291,0.4205503,-0.16624878,0.21376601,-0.8659116
05b1e954-e0de-4e6a-bec5-f040535b11d2,1747059632443471443,0.18119812,-0.72288513,0.58555603,0.11816406,-0.49560544,0.85546875,-7.220381394248456,-30.66213769371029,-130.17286998053143,0.42055306,-0.1662322,0.21373524,-0.865921
05b1e954-e0de-4e6a-bec5-f040535b11d2,1747059632451214443,-0.18501282,-0.72288513,0.5245209,0.10253906,-0.50634766,0.8730468,-7.223002747860179,-30.6581618188004,-130.17420882798683,0.42054978,-0.16623597,0.21369703,-0.86593133
05b1e954-e0de-4e6a-bec5-f040535b11d2,1747059632458957443,-0.42915344,-0.7839203,0.45967102,0.11425781,-0.4970703,0.85937494,-7.220379255550921,-30.65047311700041,-130.1728699179277,0.42055875,-0.16619244,0.21364567,-0.86594796
05b1e954-e0de-4e6a-bec5-f040535b11d2,1747059632470729443,-0.30708313,-0.72288513,0.5245209,0.115722656,-0.51123047,0.86035156,-7.221221499473559,-30.64276447457376,-130.1733007788603,0.42056084,-0.16617174,0.213584,-0.86596614
05b1e954-e0de-4e6a-bec5-f040535b11d2,1747059632482501443,-0.5531311,-0.8468628,0.70762634,0.12207031,-0.51171875,0.8549804,-7.2230582430420744,-30.640687704483035,-130.1742371314907,0.4205582,-0.16617681,0.21356268,-0.86597174
05b1e954-e0de-4e6a-bec5-f040535b11d2,1747059632494273443,-0.7953644,-0.7839203,0.58555603,0.115722656,-0.50927734,0.84912103,-7.22712490871167,-30.638290386692127,-130.17630794387176,0.4205513,-0.16619551,0.21353234,-0.86597896
05b1e954-e0de-4e6a-bec5-f040535b11d2,1747059632504403443,-1.832962,-0.7839203,0.15830994,0.1171875,-0.50878906,0.85937494,-7.2421791767279515,-30.661161976126326,-130.17272358594505,0.4205953,-0.16639386,0.21364753,-0.8658911
05b1e954-e0de-4e6a-bec5-f040535b11d2,1747059632514532443,-2.1381378,-1.0890961,0.40245056,0.12841797,-0.51660156,0.8598632,-7.2553802579461735,-30.67881892228513,-130.17479905071337,0.42059562,-0.16654988,0.21373768,-0.8658387
05b1e954-e0de-4e6a-bec5-f040535b11d2,1747059632524661443,-2.1381378,-0.72288513,0.27656555,0.118652344,-0.5029297,0.8662109,-7.2675931728104946,-30.693142367029527,-130.1767424903007,0.42059672,-0.1666873,0.21380566,-0.8657949
05b1e954-e0de-4e6a-bec5-f040535b11d2,1747059632535082443,-2.506256,-0.90408325,0.40245056,0.11035156,-0.4970703,0.86132807,-7.281157779780535,-30.70964511327999,-130.18047518408954,0.4205858,-0.166839,0.21388803,-0.8657507
05b1e954-e0de-4e6a-bec5-f040535b11d2,1747059632545503443,-2.5043488,-0.7839203,-0.14686584,0.104003906,-0.5126953,0.871582,-7.289258722669678,-30.725792822971957,-130.18408559283483,0.42056578,-0.16694842,0.21398754,-0.86571467
05b1e954-e0de-4e6a-bec5-f040535b11d2,1747059632555924443,-2.9315948,-0.72288513,-0.2117157,0.115234375,-0.5107422,0.8632812,-7.300064195828141,-30.749223511600924,-130.18915621580314,0.42053628,-0.16710033,0.2141352,-0.86566323
05b1e954-e0de-4e6a-bec5-f040535b11d2,1747059632563652443,-3.5419464,-0.6008148,-0.39100647,0.119628906,-0.5185547,0.8574218,-7.327680684431057,-30.8086098020161,-130.2096631623203,0.42040414,-0.16747257,0.21451978,-0.86556023
05b1e954-e0de-4e6a-bec5-f040535b11d2,1747059632571383443,-3.7250519,-0.41770935,-0.69999695,0.114746094,-0.51904297,0.8579101,-7.338894697589027,-30.84293469801696,-130.22249678129137,0.4203115,-0.16764991,0.21476096,-0.86551106
05b1e954-e0de-4e6a-bec5-f040535b11d2,1747059632579114443,-3.6029816,-0.23460388,-1.0623932,0.119628906,-0.5180664,0.8574218,-7.355639835161086,-30.875029078825353,-130.2404999953775,0.42019135,-0.16785167,0.21497233,-0.86547786
05b1e954-e0de-4e6a-bec5-f040535b11d2,1747059632586845443,-3.419876,-0.17356873,-1.0051727,0.11035156,-0.50927734,0.8676757,-7.367129451963584,-30.905472097132456,-130.257153079801,0.42007235,-0.16801056,0.21518835,-0.8654511
05b1e954-e0de-4e6a-bec5-f040535b11d2,1747059632597395443,-3.665924,-0.2975464,-1.3065338,0.13085938,-0.53125,0.86425775,-7.384573166597991,-30.93651326558343,-130.27801592664636,0.41993248,-0.16820845,0.21539336,-0.8654295
05b1e954-e0de-4e6a-bec5-f040535b11d2,1747059632607945443,-2.7484894,0.31471252,-1.3065338,0.119140625,-0.51953125,0.8759765,-7.394952061371117,-30.957468787806953,-130.29789262137157,0.41979173,-0.16832054,0.21554543,-0.86543816
05b1e954-e0de-4e6a-bec5-f040535b11d2,1747059632618495443,-2.626419,0.0705719,-1.493454,0.11035156,-0.53125,0.88232416,-7.403595058733727,-30.97700370300178,-130.31465625500803,0.41967192,-0.1684205,0.2156884,-0.8654412
05b1e954-e0de-4e6a-bec5-f040535b11d2,1747059632629969443,-2.2602081,0.0705719,-1.4286041,0.10986328,-0.51416016,0.8759765,-7.410562888359372,-30.9933656157352,-130.33149063406375,0.41954997,-0.16849686,0.21581328,-0.8654543
05b1e954-e0de-4e6a-bec5-f040535b11d2,1747059632641446443,-2.0771027,0.25367737,-1.2454987,0.114746094,-0.5307617,0.87744135,-7.418979945447937,-31.005610504272124,-130.3483077783298,0.4194329,-0.16857024,0.21590124,-0.8654749
05b1e954-e0de-4e6a-bec5-f040535b11d2,1747059632652923443,-1.7108917,0.68092346,-1.1882782,0.1274414,-0.53564453,0.86425775,-7.426361704638909,-31.023703358263585,-130.36559159928467,0.41930753,-0.16865467,0.2160386,-0.8654849
05b1e954-e0de-4e6a-bec5-f040535b11d2,1747059632660595443,-1.3465881,0.49591064,-1.493454,0.11279297,-0.52490234,0.86669916,-7.4374322199869,-31.048416016689234,-130.39935903247272,0.41906142,-0.1687582,0.2162376,-0.8655342
05b1e954-e0de-4e6a-bec5-f040535b11d2,1747059632668267443,-1.1005402,0.86402893,-1.493454,0.11230469,-0.5341797,0.8789062,-7.439942380972763,-31.06060516329944,-130.4159419767245,0.41893503,-0.16878708,0.21634647,-0.86556256
05b1e954-e0de-4e6a-bec5-f040535b11d2,1747059632675939443,-0.9174347,0.6198883,-1.3065338,0.107421875,-0.5366211,0.86035156,-7.442713921779628,-31.072412701103673,-130.42991892719618,0.418829,-0.16882153,0.21644762,-0.86558187
05b1e954-e0de-4e6a-bec5-f040535b11d2,1747059632683611443,-0.6122589,0.43678284,-1.2454987,0.123535156,-0.53759766,0.8652344,-7.4477870219839915,-31.07945902423492,-130.44589670955958,0.4187145,-0.16885348,0.21650675,-0.86561626
05b1e954-e0de-4e6a-bec5-f040535b11d2,1747059632693879443,-0.18501282,0.68092346,-1.1882782,0.110839844,-0.5307617,0.87988275,-7.444624137908758,-31.079422430607593,-130.45033942570439,0.41867498,-0.16882107,0.21652457,-0.86563724
05b1e954-e0de-4e6a-bec5-f040535b11d2,1747059632704147443,-0.06484985,0.61798096,-1.2454987,0.12011719,-0.51464844,0.8657226,-7.446989896892322,-31.077077652844643,-130.46403521543616,0.4185771,-0.16880514,0.21651809,-0.8656893
05b1e954-e0de-4e6a-bec5-f040535b11d2,1747059632714415443,0.059127808,0.37574768,-1.4286041,0.119140625,-0.5239258,0.8701171,-7.451421503902367,-31.076396120593706,-130.47249418387207,0.4185219,-0.16882034,0.21650913,-0.86571527
05b1e954-e0de-4e6a-bec5-f040535b11d2,1747059632726255443,0.118255615,0.74386597,-1.4286041,0.11328125,-0.5131836,0.85693353,-7.456344411568066,-31.076939747534247,-130.49026088228894,0.4183967,-0.16882579,0.2165215,-0.8657716
05b1e954-e0de-4e6a-bec5-f040535b11d2,1747059632738095443,0.30326843,0.55885315,-1.7337799,0.096191406,-0.5263672,0.8579101,-7.457952631987729,-31.069074755911213,-130.5058711044738,0.41828558,-0.1687819,0.2164782,-0.86584467
05b1e954-e0de-4e6a-bec5-f040535b11d2,1747059632749935443,0.120162964,0.37574768,-2.2830963,0.11230469,-0.5209961,0.86718744,-7.463811991461741,-31.067882985127284,-130.5261219223246,0.4181442,-0.1687839,0.21647748,-0.86591274
05b1e954-e0de-4e6a-bec5-f040535b11d2,1747059632757586443,0.17929077,0.4348755,-1.7948151,0.10644531,-0.5253906,0.855957,-7.470878378372466,-31.06110035714572,-130.56547765211667,0.41786337,-0.1687401,0.21645755,-0.8660618
05b1e954-e0de-4e6a-bec5-f040535b11d2,1747059632765237443,0.118255615,0.49591064,-1.8596649,0.111816406,-0.5131836,0.86914057,-7.473749224535375,-31.053900313477943,-130.58395596723997,0.41773257,-0.16870263,0.21641895,-0.86614186
05b1e954-e0de-4e6a-bec5-f040535b11d2,1747059632772888443,-0.18501282,0.497818,-1.9168854,0.10449219,-0.5209961,0.86132807,-7.4760550372386,-31.04924259984066,-130.60098392515076,0.41761044,-0.16867222,0.21639982,-0.8662115
05b1e954-e0de-4e6a-bec5-f040535b11d2,1747059632780539443,-0.12397766,0.19264221,-1.5506744,0.115234375,-0.515625,0.85546875,-7.482549690734923,-31.046714668917442,-130.6167431081602,0.41750476,-0.16868304,0.21637991,-0.86626524
05b1e954-e0de-4e6a-bec5-f040535b11d2,1747059632790815443,-0.6752014,-0.35858154,-1.367569,0.10498047,-0.5097656,0.84863275,-7.4831210366764696,-31.047805498912798,-130.6216793907183,0.417468,-0.16868171,0.21639349,-0.86627984
05b1e954-e0de-4e6a-bec5-f040535b11d2,1747059632801091443,-0.67329407,-0.29563904,-0.8792877,0.1015625,-0.51708984,0.8652344,-7.4787696917984645,-31.04647292568747,-130.61943530935528,0.4174774,-0.16864857,0.2163958,-0.8662812
05b1e954-e0de-4e6a-bec5-f040535b11d2,1747059632811367443,-0.8583069,-0.23269653,-0.57411194,0.10253906,-0.5229492,0.8598632,-7.473035856276332,-31.044641141945963,-130.6164784685785,0.4174898,-0.16860464,0.21639825,-0.8662832
05b1e954-e0de-4e6a-bec5-f040535b11d2,1747059632819256443,-1.1005402,-0.53977966,-0.2117157,0.10595703,-0.51171875,0.8632812,-7.467685030598679,-31.040800455217397,-130.6137180570898,0.41750237,-0.16855647,0.21638416,-0.86629
05b1e954-e0de-4e6a-bec5-f040535b11d2,1747059632827145443,-1.2836456,-0.41770935,0.036239624,0.10839844,-0.515625,0.8627929,-7.4628217602922495,-31.03948754577257,-130.61121208007876,0.41751277,-0.16852002,0.2163881,-0.8662911
05b1e954-e0de-4e6a-bec5-f040535b11d2,1747059632835034443,-1.3465881,-0.48065186,0.5245209,0.10058594,-0.5214844,0.8652344,-7.461956296625571,-31.045695325369994,-130.60836854090283,0.41752967,-0.16853975,0.21643479,-0.86626744
05b1e954-e0de-4e6a-bec5-f040535b11d2,1747059632842923443,-1.5888214,-0.4787445,0.5245209,0.106933594,-0.52246094,0.86474603,-7.460964300641666,-31.05974722365286,-130.6029519525507,0.41756204,-0.1685898,0.21653844,-0.8662162
05b1e954-e0de-4e6a-bec5-f040535b11d2,1747059632854482443,-1.8348694,-0.35858154,1.0128021,0.110839844,-0.5258789,0.85351557,-7.4596638717623645,-31.078270185721703,-130.59717017657235,0.41759443,-0.16865328,0.21667704,-0.86615354
05b1e954-e0de-4e6a-bec5-f040535b11d2,1747059632866041443,-1.9550323,-0.29563904,0.5245209,0.11279297,-0.5288086,0.855957,-7.45881030279389,-31.099409210551464,-130.59389260433062,0.4176075,-0.16872422,0.2168378,-0.8660932
05b1e954-e0de-4e6a-bec5-f040535b11d2,1747059632877600443,-2.3822784,-0.29563904,0.5245209,0.11621094,-0.53271484,0.8627929,-7.463149807097101,-31.124202093957564,-130.59272312033605,0.41761267,-0.16884273,0.2170108,-0.8660243
05b1e954-e0de-4e6a-bec5-f040535b11d2,1747059632885322443,-2.6893616,-0.23269653,0.45967102,0.11816406,-0.5283203,0.8530273,-7.463372931815228,-31.151051430014114,-130.59032081226218,0.41761836,-0.16893938,0.21721277,-0.8659521
05b1e954-e0de-4e6a-bec5-f040535b11d2,1747059632893045443,-2.7484894,-0.29563904,0.2193451,0.119140625,-0.5385742,0.8632812,-7.466980582821454,-31.177344513357582,-130.59169751086705,0.41760215,-0.16905256,0.21740368,-0.86588985
05b1e954-e0de-4e6a-bec5-f040535b11d2,1747059632900768443,-2.3231506,-0.17547607,0.09727478,0.11279297,-0.53515625,0.8730468,-7.473198642398376,-31.20293774493839,-130.5954709028223,0.41757315,-0.16917855,0.21758325,-0.8658342
05b1e954-e0de-4e6a-bec5-f040535b11d2,1747059632908491443,-2.2602081,0.13160706,-0.08583069,0.11230469,-0.54052734,0.8730468,-7.471234160805855,-31.224207234982153,-130.5983651298494,0.4175373,-0.16922979,0.2177581,-0.86579746
05b1e954-e0de-4e6a-bec5-f040535b11d2,1747059632918705443,-1.5277863,0.37574768,-1.0623932,0.11669922,-0.5522461,0.8754882,-7.4709394316221385,-31.23813928959678,-130.60671679831887,0.41746694,-0.16925858,0.21787857,-0.8657955
05b1e954-e0de-4e6a-bec5-f040535b11d2,1747059632928919443,-0.7953644,0.0705719,-1.0623932,0.11230469,-0.54296875,0.86474603,-7.472305391440468,-31.249521520736792,-130.6124930256174,0.4174204,-0.1692962,0.21796957,-0.8657876
05b1e954-e0de-4e6a-bec5-f040535b11d2,1747059632939133443,-0.37002563,0.4348755,-1.6765594,0.11621094,-0.5234375,0.85644525,-7.476606943937214,-31.25700590647945,-130.62790000113284,0.41730857,-0.16932458,0.21803418,-0.86581975
05b1e954-e0de-4e6a-bec5-f040535b11d2,1747059632950995443,0.42533875,-0.11253357,-2.1648407,0.12207031,-0.5444336,0.8754882,-7.500562527274568,-31.25765296218637,-130.66980614750076,0.4170372,-0.16942804,0.21801388,-0.8659354
05b1e954-e0de-4e6a-bec5-f040535b11d2,1747059632962858443,0.7305145,-0.29563904,-2.2220612,0.119140625,-0.5288086,0.86718744,-7.512525039574675,-31.249873772945826,-130.69072690822503,0.41690555,-0.1694525,0.2179415,-0.86601216
05b1e954-e0de-4e6a-bec5-f040535b11d2,1747059632974721443,1.461029,-0.05340576,-2.1648407,0.10839844,-0.5361328,0.8740234,-7.5192297653257105,-31.23585440476859,-130.70944854752176,0.4167835,-0.16942051,0.21783704,-0.8661035
05b1e954-e0de-4e6a-bec5-f040535b11d2,1747059632984884443,1.461029,-0.17547607,-1.8596649,0.11767578,-0.5263672,0.86914057,-7.526898902157709,-31.221532352808964,-130.7259118222125,0.41668046,-0.16939911,0.21772338,-0.8661858
05b1e954-e0de-4e6a-bec5-f040535b11d2,1747059632995047443,1.8901825,-0.17356873,-1.9817352,0.11279297,-0.5336914,0.85644525,-7.535837932249524,-31.202938864258112,-130.74303727195385,0.4165768,-0.16937177,0.21757326,-0.8662787
05b1e954-e0de-4e6a-bec5-f040535b11d2,1747059633005210443,1.6460419,-0.4787445,-1.6765594,0.10253906,-0.52734375,0.85937494,-7.54376246893231,-31.190410386493244,-130.7580549315181,0.41648424,-0.16936114,0.21747032,-0.8663511
05b1e954-e0de-4e6a-bec5-f040535b11d2,1747059633012951443,2.0713806,-0.78582764,-0.7572174,0.09863281,-0.5253906,0.86474603,-7.553760958925858,-31.15276723896226,-130.77585062017707,0.4163864,-0.16927676,0.21717082,-0.86648977
05b1e954-e0de-4e6a-bec5-f040535b11d2,1747059633020693443,2.1953583,-0.66185,-0.57411194,0.100097656,-0.51904297,0.86132807,-7.555407364480684,-31.134329763789204,-130.77770486180833,0.41638416,-0.16922387,0.21702579,-0.8665375
05b1e954-e0de-4e6a-bec5-f040535b11d2,1747059633028435443,2.0122528,-0.7839203,-0.08583069,0.115234375,-0.52734375,0.85644525,-7.559781182584804,-31.11644650750829,-130.7761424256211,0.41641265,-0.16919994,0.21687005,-0.8665675
05b1e954-e0de-4e6a-bec5-f040535b11d2,1747059633036177443,1.7681122,-0.9059906,0.6427765,0.09814453,-0.5283203,0.8657226,-7.55727865543058,-31.10359276883723,-130.76551943501684,0.41649428,-0.16915801,0.21676461,-0.86656284
05b1e954-e0de-4e6a-bec5-f040535b11d2,1747059633046515443,1.0948181,-1.2130737,1.0738373,0.111816406,-0.51953125,0.85888666,-7.5588188724589305,-31.092782850850114,-130.75397354956252,0.41658956,-0.16915523,0.21665883,-0.866544
05b1e954-e0de-4e6a-bec5-f040535b11d2,1747059633056853443,0.97465515,-0.9059906,1.5010834,0.106933594,-0.5058594,0.8417968,-7.55965307963926,-31.085920441741553,-130.7381146385994,0.41671428,-0.16916849,0.21657962,-0.8665013
05b1e954-e0de-4e6a-bec5-f040535b11d2,1747059633067191443,0.60653687,-0.7209778,1.5010834,0.11425781,-0.5390625,0.85156244,-7.561608489108534,-31.086875451558306,-130.72359491437845,0.41682732,-0.16921392,0.21655841,-0.86644334
05b1e954-e0de-4e6a-bec5-f040535b11d2,1747059633075095443,0.24223328,-0.23460388,1.5621185,0.11816406,-0.53027344,0.85937494,-7.561296944830622,-31.088006233704057,-130.71034373687098,0.41692638,-0.1692404,0.21654867,-0.8663929
05b1e954-e0de-4e6a-bec5-f040535b11d2,1747059633082999443,0.3643036,0.25367737,1.6841888,0.12060547,-0.5288086,0.86914057,-7.55545652603004,-31.088645014239127,-130.69520125432635,0.41702953,-0.169227,0.21655247,-0.8663449
05b1e954-e0de-4e6a-bec5-f040535b11d2,1747059633090903443,0.4234314,0.8621216,0.8907318,0.125,-0.54003906,0.87499994,-7.551232229314201,-31.08865515891103,-130.68900471667024,0.4170684,-0.16920681,0.21655877,-0.8663286
05b1e954-e0de-4e6a-bec5-f040535b11d2,1747059633098807443,1.0948181,0.61798096,1.3790131,0.12548828,-0.51660156,0.8764648,-7.544956309756249,-31.07732836088705,-130.67894139202753,0.41713795,-0.16914032,0.21647967,-0.8663279
05b1e954-e0de-4e6a-bec5-f040535b11d2,1747059633110319443,1.5830994,0.74386597,0.8907318,0.115234375,-0.5209961,0.8842773,-7.534664900745957,-31.06399516041112,-130.66812632259845,0.41720656,-0.16903813,0.21639867,-0.86633503
05b1e954-e0de-4e6a-bec5-f040535b11d2,1747059633121831443,2.1953583,0.6198883,0.70762634,0.119140625,-0.5292969,0.88281244,-7.526702787617653,-31.04413712758706,-130.65954240373537,0.41726577,-0.16892737,0.21626233,-0.86636215
05b1e954-e0de-4e6a-bec5-f040535b11d2,1747059633133343443,2.3784637,0.497818,0.3414154,0.123535156,-0.5292969,0.86718744,-7.521603523849104,-31.027192223884022,-130.65354348207978,0.4173095,-0.16884315,0.21614178,-0.8663876
05b1e954-e0de-4e6a-bec5-f040535b11d2,1747059633141000443,2.1953583,0.497818,0.15830994,0.115722656,-0.50878906,0.8623046,-7.520727127925232,-31.007645374192837,-130.65130505061285,0.41733396,-0.16877499,0.21599138,-0.8664266
05b1e954-e0de-4e6a-bec5-f040535b11d2,1747059633148657443,2.0713806,0.25558472,-0.08583069,0.11425781,-0.52001953,0.86132807,-7.51799084678469,-30.985723019710207,-130.6493929655079,0.41735357,-0.16868415,0.21582997,-0.86647505
05b1e954-e0de-4e6a-bec5-f040535b11d2,1747059633156314443,1.7681122,0.37574768,-0.2117157,0.119140625,-0.51904297,0.8623046,-7.512336587330048,-30.966047679274105,-130.6472330973635,0.4173685,-0.16857927,0.2156961,-0.8665216
05b1e954-e0de-4e6a-bec5-f040535b11d2,1747059633163971443,1.5239716,0.497818,-0.2117157,0.110839844,-0.51416016,0.8579101,-7.511048903070157,-30.9486294731925,-130.64935175411395,0.41735825,-0.16850694,0.21556997,-0.866572
05b1e954-e0de-4e6a-bec5-f040535b11d2,1747059633174498443,1.4629364,0.497818,-0.57411194,0.123535156,-0.5180664,0.8608398,-7.50904400249904,-30.936157750369325,-130.65425742124435,0.41732323,-0.16844058,0.21548858,-0.86662203
05b1e954-e0de-4e6a-bec5-f040535b11d2,1747059633185025443,1.1577606,0.68092346,-0.69999695,0.12207031,-0.5180664,0.8710937,-7.511157842754753,-30.92178904117985,-130.66166168455302,0.41727793,-0.1683943,0.21538126,-0.8666795
05b1e954-e0de-4e6a-bec5-f040535b11d2,1747059633195552443,1.3408661,0.8029938,-0.45204163,0.11279297,-0.4921875,0.86132807,-7.508196629597855,-30.90476351685192,-130.66663377743055,0.41724274,-0.16830528,0.21526842,-0.8667418
05b1e954-e0de-4e6a-bec5-f040535b11d2,1747059633204129443,1.3408661,0.98609924,-0.6351471,0.11669922,-0.5258789,0.8754882,-7.504674860639306,-30.88856438438826,-130.67220127513812,0.41720158,-0.16821368,0.21516483,-0.8668051
05b1e954-e0de-4e6a-bec5-f040535b11d2,1747059633212706443,1.3408661,1.1692047,-0.5168915,0.110839844,-0.5136719,0.86474603,-7.495033247772494,-30.87406587975041,-130.67446343900966,0.41717315,-0.16808772,0.21509174,-0.86686134
05b1e954-e0de-4e6a-bec5-f040535b11d2,1747059633221283443,1.2798309,0.86402893,-0.6351471,0.11816406,-0.5253906,0.883789,-7.488130883319347,-30.858347429029493,-130.678452754794,0.41713735,-0.16797513,0.2150018,-0.8669227
05b1e954-e0de-4e6a-bec5-f040535b11d2,1747059633229860443,1.5850067,1.0471344,-0.6351471,0.109375,-0.5136719,0.8735351,-7.480165062157589,-30.83961045866358,-130.68134219076018,0.4171093,-0.1678464,0.21489091,-0.8669886
05b1e954-e0de-4e6a-bec5-f040535b11d2,1747059633240217443,1.5830994,1.2893677,-0.57411194,0.104003906,-0.50439453,0.8789062,-7.4694975240713575,-30.823050895801092,-130.68324575129947,0.41708267,-0.1677064,0.21480516,-0.8670498
05b1e954-e0de-4e6a-bec5-f040535b11d2,1747059633250574443,1.3408661,1.1081696,-0.45204163,0.1171875,-0.5209961,0.8710937,-7.459190885625118,-30.805922120409186,-130.68410856876847,0.41706482,-0.16756915,0.21471216,-0.8671079
05b1e954-e0de-4e6a-bec5-f040535b11d2,1747059633260931443,1.2187958,0.7419586,-0.14686584,0.09863281,-0.51464844,0.8657226,-7.453316502745726,-30.790952468600945,-130.68620526393835,0.41704494,-0.16747038,0.21462144,-0.867159
05b1e954-e0de-4e6a-bec5-f040535b11d2,1747059633271188443,1.2187958,0.7419586,0.036239624,0.109375,-0.5209961,0.86718744,-7.4346617950676075,-30.77154792863943,-130.68274282063965,0.4170453,-0.16727038,0.214535,-0.86721885
05b1e954-e0de-4e6a-bec5-f040535b11d2,1747059633281448443,1.6460419,0.7419586,0.036239624,0.111816406,-0.5332031,0.8784179,-7.427236653997863,-30.764373099610733,-130.67966802552155,0.41705802,-0.16719578,0.21450233,-0.8672352
05b1e954-e0de-4e6a-bec5-f040535b11d2,1747059633291708443,1.6460419,1.1692047,-0.08583069,0.107910156,-0.5131836,0.8862304,-7.416984416169236,-30.7437570282331,-130.6775508390314,0.41706452,-0.16705273,0.21437795,-0.8672904
05b1e954-e0de-4e6a-bec5-f040535b11d2,1747059633299488443,1.9512177,0.98609924,-0.08583069,0.118652344,-0.52001953,0.8608398,-7.407058042947035,-30.722054487424078,-130.67568567763558,0.41707024,-0.166908,0.2142444,-0.8673485
05b1e954-e0de-4e6a-bec5-f040535b11d2,1747059633307269443,2.0122528,1.0471344,-0.08583069,0.12109375,-0.52001953,0.8574218,-7.398409147676288,-30.704948142124838,-130.67283754186556,0.41708365,-0.16679023,0.21414012,-0.86739045
05b1e954-e0de-4e6a-bec5-f040535b11d2,1747059633315050443,1.5239716,0.8029938,-0.26893616,0.111816406,-0.51464844,0.86914057,-7.395525813802229,-30.6929323552064,-130.67574106405573,0.41706192,-0.1667225,0.2140624,-0.86743313
05b1e954-e0de-4e6a-bec5-f040535b11d2,1747059633322831443,1.4019012,0.98609924,-0.57411194,0.11328125,-0.5102539,0.8652344,-7.386836380625814,-30.676725615681676,-130.67677987579364,0.4170454,-0.16660018,0.21397083,-0.86748713
05b1e954-e0de-4e6a-bec5-f040535b11d2,1747059633334559443,1.1558533,0.92315674,-0.57411194,0.12207031,-0.52001953,0.87207025,-7.377394450855687,-30.667191168487136,-130.67868469791026,0.41701785,-0.16649303,0.2139346,-0.8675299
05b1e954-e0de-4e6a-bec5-f040535b11d2,1747059633346287443,1.2798309,0.68092346,-0.69999695,0.12402344,-0.515625,0.8676757,-7.375582933783551,-30.655600495050976,-130.68614556777197,0.4169634,-0.16642633,0.21386284,-0.86758655
05b1e954-e0de-4e6a-bec5-f040535b11d2,1747059633358015443,1.0948181,0.74386597,-1.1234283,0.11376953,-0.5126953,0.86425775,-7.377943666982426,-30.645192656560223,-130.69725040164693,0.4168886,-0.16638842,0.21379028,-0.86764765
05b1e954-e0de-4e6a-bec5-f040535b11d2,1747059633368203443,1.0356903,0.37574768,-1.6765594,0.11816406,-0.51171875,0.8632812,-7.385463306656065,-30.625698553534566,-130.72629257589998,0.4166918,-0.16632555,0.21365507,-0.86778754
05b1e954-e0de-4e6a-bec5-f040535b11d2,1747059633378390443,0.66947937,0.68092346,-1.8596649,0.115234375,-0.5209961,0.8657226,-7.389131302046754,-30.618557915810133,-130.74366993600609,0.41657037,-0.1662969,0.21361199,-0.8678619
05b1e954-e0de-4e6a-bec5-f040535b11d2,1747059633388577443,1.0356903,0.6198883,-1.7948151,0.115722656,-0.50927734,0.8818359,-7.391772525602737,-30.605574550990333,-130.76096326019587,0.41645035,-0.16624099,0.21352755,-0.86795104
05b1e954-e0de-4e6a-bec5-f040535b11d2,1747059633396293443,1.0356903,0.497818,-1.9168854,0.11035156,-0.51416016,0.87207025,-7.3970745696739,-30.590150616855045,-130.78038171723193,0.4163203,-0.1661931,0.21341771,-0.8680496
05b1e954-e0de-4e6a-bec5-f040535b11d2,1747059633404011443,0.85258484,0.497818,-1.9817352,0.107421875,-0.5175781,0.8676757,-7.400769679001961,-30.575224884635333,-130.7994458938368,0.41618964,-0.1661354,0.213317,-0.868148
05b1e954-e0de-4e6a-bec5-f040535b11d2,1747059633411729443,0.97465515,0.86402893,-1.6765594,0.11425781,-0.5107422,0.87695307,-7.400449207150065,-30.566641877263248,-130.81584135739047,0.4160688,-0.1660736,0.21327585,-0.8682279
05b1e954-e0de-4e6a-bec5-f040535b11d2,1747059633419447443,0.97465515,0.98609924,-1.8596649,0.10449219,-0.5209961,0.8637695,-7.399977484307205,-30.55445854973141,-130.8320929704435,0.4159504,-0.16599885,0.21320729,-0.86831576
05b1e954-e0de-4e6a-bec5-f040535b11d2,1747059633430123443,1.0967255,0.86402893,-1.3065338,0.115234375,-0.5175781,0.8701171,-7.397795796388915,-30.544389040888877,-130.84408598561174,0.4158601,-0.16592617,0.21315503,-0.86838573
05b1e954-e0de-4e6a-bec5-f040535b11d2,1747059633440799443,1.0356903,0.43678284,-1.1882782,0.103515625,-0.51171875,0.8657226,-7.399326886275726,-30.532487687376804,-130.85551102236158,0.41578183,-0.16587655,0.21307436,-0.8684525
05b1e954-e0de-4e6a-bec5-f040535b11d2,1747059633451475443,1.0967255,0.37574768,-0.7572174,0.106933594,-0.5185547,0.8701171,-7.395132744921794,-30.519954635978248,-130.8596383430098,0.4157485,-0.165795,0.21299902,-0.8685025
05b1e954-e0de-4e6a-bec5-f040535b11d2,1747059633462914443,0.78964233,0.4348755,-0.26893616,0.110839844,-0.5,0.8632812,-7.388769742380167,-30.512879731527025,-130.86017334275783,0.41573587,-0.16572201,0.21296838,-0.86853
05b1e954-e0de-4e6a-bec5-f040535b11d2,1747059633474355443,0.54740906,0.31471252,0.2193451,0.119140625,-0.5126953,0.86474603,-7.38940446964771,-30.510882980773765,-130.86049496566892,0.41573554,-0.16571952,0.21295117,-0.86853486
05b1e954-e0de-4e6a-bec5-f040535b11d2,1747059633485796443,0.24223328,0.19264221,0.40245056,0.11035156,-0.52685547,0.8706054,-7.387605939115301,-30.511749976302053,-130.8595826937944,0.4157387,-0.1657105,0.21296304,-0.8685321
05b1e954-e0de-4e6a-bec5-f040535b11d2,1747059633495999443,0.120162964,0.55885315,0.9479523,0.103515625,-0.5102539,0.87451166,-7.390762671336326,-30.512602959628694,-130.8611859976198,0.41573203,-0.1657343,0.21296048,-0.8685314
05b1e954-e0de-4e6a-bec5-f040535b11d2,1747059633506203443,0.059127808,0.6198883,1.0128021,0.115722656,-0.50634766,0.87695307,-7.385626956151216,-30.511606992570353,-130.85857764085128,0.41574273,-0.16569689,0.21296768,-0.8685317
05b1e954-e0de-4e6a-bec5-f040535b11d2,1747059633516407443,-0.06484985,0.92315674,0.8907318,0.107421875,-0.51220703,0.87451166,-7.386084323099494,-30.507147141719948,-130.85880807361957,0.41574386,-0.16568494,0.21293199,-0.86854213
05b1e954-e0de-4e6a-bec5-f040535b11d2,1747059633524370443,-0.6122589,1.4743805,1.5010834,0.1171875,-0.5205078,0.86181635,-7.350281468864794,-30.51260062551082,-130.8352507725955,0.41585335,-0.1654757,0.21306987,-0.8684958
05b1e954-e0de-4e6a-bec5-f040535b11d2,1747059633532336443,-0.37002563,1.411438,1.1310577,0.11279297,-0.5019531,0.8735351,-7.332850503435521,-30.513445470537842,-130.8244820818214,0.41590217,-0.16536646,0.2131241,-0.86847997
05b1e954-e0de-4e6a-bec5-f040535b11d2,1747059633540302443,-0.30708313,1.3523102,1.3790131,0.12109375,-0.51904297,0.8652344,-7.313867635889761,-30.516783618358478,-130.81067454818103,0.41596994,-0.1652595,0.21319878,-0.8684495
05b1e954-e0de-4e6a-bec5-f040535b11d2,1747059633548268443,-0.06484985,1.4724731,1.619339,0.10986328,-0.5161133,0.8818359,-7.290278703845845,-30.51659084870075,-130.79402882046372,0.41605228,-0.16511105,0.21325894,-0.8684235
05b1e954-e0de-4e6a-bec5-f040535b11d2,1747059633558574443,-0.18692017,1.2893677,1.6841888,0.11376953,-0.52783203,0.87744135,-7.271979097383337,-30.52216315199736,-130.77920608008415,0.41612795,-0.16501872,0.21334694,-0.8683832
05b1e954-e0de-4e6a-bec5-f040535b11d2,1747059633568880443,-0.42915344,1.2302399,1.8672943,0.103027344,-0.5024414,0.852539,-7.249570896809361,-30.52778246609822,-130.760619223244,0.41622442,-0.16490245,0.21344483,-0.868335
05b1e954-e0de-4e6a-bec5-f040535b11d2,1747059633579186443,-0.5531311,1.2893677,1.6841888,0.115234375,-0.52246094,0.87499994,-7.232111343906632,-30.53278972924359,-130.7447073716368,0.4163101,-0.16481666,0.21352391,-0.8682908
05b1e954-e0de-4e6a-bec5-f040535b11d2,1747059633590659443,-0.37002563,0.9841919,1.5621185,0.11328125,-0.5073242,0.8862304,-7.218760720837851,-30.534865688648086,-130.72985480031298,0.41639677,-0.16475017,0.21356703,-0.8682512
05b1e954-e0de-4e6a-bec5-f040535b11d2,1747059633602131443,-0.06484985,1.1672974,1.8672943,0.109375,-0.5263672,0.883789,-7.1969704637357514,-30.53401478436402,-130.71109378701283,0.41649872,-0.16461718,0.21361272,-0.86821634
05b1e954-e0de-4e6a-bec5-f040535b11d2,1747059633613603443,0.3643036,1.0471344,1.3179779,0.104003906,-0.5161133,0.87988275,-7.181740381676519,-30.53467607565177,-130.69712630900935,0.41657582,-0.16453005,0.2136531,-0.8681859
05b1e954-e0de-4e6a-bec5-f040535b11d2,1747059633623808443,0.66947937,1.1692047,1.0128021,0.11425781,-0.52734375,0.8730468,-7.148603287816852,-30.52814200576575,-130.6726270742983,0.41670278,-0.16430263,0.21368815,-0.8681594
05b1e954-e0de-4e6a-bec5-f040535b11d2,1747059633634014443,0.30326843,1.0471344,0.70762634,0.099609375,-0.5288086,0.87695307,-7.1366300987813585,-30.52559560550733,-130.66561777970153,0.41673478,-0.1642164,0.21370205,-0.86815697
05b1e954-e0de-4e6a-bec5-f040535b11d2,1747059633644220443,0.4234314,0.9841919,0.70762634,0.10644531,-0.50683594,0.868164,-7.135914046242036,-30.526860761275685,-130.6652543581321,0.4167356,-0.16421592,0.21371387,-0.86815375
05b1e954-e0de-4e6a-bec5-f040535b11d2,1747059633652018443,0.9727478,0.61798096,0.70762634,0.09765625,-0.5214844,0.88281244,-7.130597086134379,-30.526727766749378,-130.66092871590095,0.4167585,-0.16418326,0.21372598,-0.86814594
05b1e954-e0de-4e6a-bec5-f040535b11d2,1747059633659817443,1.0967255,0.55885315,0.5245209,0.103515625,-0.5366211,0.88281244,-7.1195812273978145,-30.521973894434698,-130.6536803941611,0.41679516,-0.16409726,0.21371908,-0.8681463
05b1e954-e0de-4e6a-bec5-f040535b11d2,1747059633667616443,1.2779236,0.8010864,0.70762634,0.09716797,-0.5161133,0.88476557,-7.104630544065433,-30.514672679322956,-130.64311271403054,0.41685086,-0.16397904,0.21370216,-0.86814606
05b1e954-e0de-4e6a-bec5-f040535b11d2,1747059633675415443,1.5850067,0.86402893,0.7648468,0.10205078,-0.5239258,0.8784179,-7.085985761883433,-30.502226353470927,-130.62968421046716,0.41692385,-0.16382076,0.21365501,-0.8681525
05b1e954-e0de-4e6a-bec5-f040535b11d2,1747059633685689443,1.8901825,0.25367737,0.7648468,0.09863281,-0.5185547,0.87255853,-7.071917799884939,-30.491624166584373,-130.6165590968428,0.4170022,-0.1637028,0.21360587,-0.8681492
05b1e954-e0de-4e6a-bec5-f040535b11d2,1747059633695963443,1.7662048,0.25558472,1.0738373,0.09765625,-0.5292969,0.8920898,-7.056996216928611,-30.48018489492214,-130.6009018627331,0.41709855,-0.16358024,0.2135498,-0.8681398
05b1e954-e0de-4e6a-bec5-f040535b11d2,1747059633706237443,2.0713806,0.5607605,1.5010834,0.083496094,-0.5317383,0.87988275,-7.035760869491525,-30.4650663958694,-130.57983679289217,0.41722593,-0.16340744,0.21348073,-0.8681281
05b1e954-e0de-4e6a-bec5-f040535b11d2,1747059633717883443,3.4770966,-0.29563904,2.9010773,0.087402344,-0.5126953,0.8784179,-6.953333009696963,-30.371051831122372,-130.456038710428,0.41805646,-0.16269454,0.21288182,-0.86800957
05b1e954-e0de-4e6a-bec5-f040535b11d2,1747059633729528443,4.1484833,-0.29563904,3.1490326,0.09033203,-0.5292969,0.8740234,-6.932485135905731,-30.34488889586953,-130.41557017917665,0.41833717,-0.16252287,0.21269926,-0.8679512
05b1e954-e0de-4e6a-bec5-f040535b11d2,1747059633741173443,4.207611,-0.541687,3.8204193,0.10449219,-0.52490234,0.8764648,-6.910726934816226,-30.313588388489425,-130.37065494085354,0.41865247,-0.16233492,0.21247438,-0.86788946
05b1e954-e0de-4e6a-bec5-f040535b11d2,1747059633757405443,4.3315887,-0.4787445,4.365921,0.095214844,-0.51123047,0.88281244,-6.879573647937697,-30.28221101201452,-130.31696405844107,0.41901693,-0.16209161,0.21227099,-0.8678088
05b1e954-e0de-4e6a-bec5-f040535b11d2,1747059633773637443,4.878998,-0.35858154,4.6749115,0.08300781,-0.515625,0.87451166,-6.849135085071666,-30.244766895890443,-130.25997694398384,0.41941077,-0.16183889,0.21201394,-0.86772853
05b1e954-e0de-4e6a-bec5-f040535b11d2,1747059633789869443,5.0621033,-0.05340576,5.525589,0.08984375,-0.5214844,0.8891601,-6.808426034448441,-30.208154544918692,-130.1938145885416,0.4198548,-0.16152792,0.21178827,-0.86762685
05b1e954-e0de-4e6a-bec5-f040535b11d2,1747059633800178443,5.247116,-0.6008148,6.6280365,0.092285156,-0.5131836,0.88818353,-6.736001394686444,-30.13323097291008,-130.05050826930972,0.4208438,-0.16098757,0.2112766,-0.8673729
05b1e954-e0de-4e6a-bec5-f040535b11d2,1747059633810487443,5.8555603,-0.7209778,7.0552826,0.08544922,-0.5126953,0.8813476,-6.695504564397696,-30.0887304984131,-129.96997302843423,0.42140138,-0.16067661,0.2109706,-0.8672343
05b1e954-e0de-4e6a-bec5-f040535b11d2,1747059633820796443,6.2236786,-0.4787445,7.173538,0.096191406,-0.50439453,0.8920898,-6.656044740478725,-30.04158062768159,-129.888811283961,0.4219671,-0.16036506,0.21064004,-0.8670972
05b1e954-e0de-4e6a-bec5-f040535b11d2,1747059633828513443,6.160736,-0.7209778,7.844925,0.09326172,-0.5175781,0.8789062,-6.611259663908526,-29.99684617399974,-129.80142443191414,0.42256904,-0.16003248,0.21033949,-0.8669385
05b1e954-e0de-4e6a-bec5-f040535b11d2,1747059633836233443,6.772995,-0.41770935,8.031845,0.099121094,-0.5175781,0.88818353,-6.566158971892117,-29.95024868047836,-129.71141148888546,0.42319137,-0.15969539,0.21002272,-0.86677384
05b1e954-e0de-4e6a-bec5-f040535b11d2,1747059633843953443,7.078171,-0.17356873,8.333206,0.10107422,-0.515625,0.89599603,-6.522371253938946,-29.896058462765563,-129.6193862542203,0.42383543,-0.15934505,0.20964065,-0.8666161
05b1e954-e0de-4e6a-bec5-f040535b11d2,1747059633846527443,7.932663,-0.66185,8.398056,0.083984375,-0.5229492,0.8969726,-6.477360229170819,-29.837361218882513,-129.5255534052754,0.4244935,-0.15897244,0.2092267,-0.86646247
05b1e954-e0de-4e6a-bec5-f040535b11d2,1747059633849101443,9.273529,-0.541687,8.214951,0.09326172,-0.5253906,0.9052734,-6.42799443019726,-29.76839348146471,-129.42727107179232,0.42518288,-0.1585385,0.20874467,-0.8663202
05b1e954-e0de-4e6a-bec5-f040535b11d2,1747059633851675443,10.250092,-0.6637573,9.069443,0.08105469,-0.51708984,0.89013666,-6.380449707371154,-29.694686478501467,-129.32499036395023,0.42590863,-0.15810813,0.20821486,-0.86616987
05b1e954-e0de-4e6a-bec5-f040535b11d2,1747059633861888443,11.045456,-0.7839203,8.821487,0.08300781,-0.5151367,0.9121093,-6.3300793757890315,-29.61048540342003,-129.22017391056292,0.42665428,-0.1576232,0.2076125,-0.8660358
05b1e954-e0de-4e6a-bec5-f040535b11d2,1747059633872101443,11.960983,-0.9059906,9.008408,0.099121094,-0.51953125,0.90039057,-6.2795670270984365,-29.51832723978101,-129.11360551852522,0.42741758,-0.1571112,0.20694827,-0.8659115
05b1e954-e0de-4e6a-bec5-f040535b11d2,1747059633882314443,12.998581,-1.3332367,8.886337,0.087402344,-0.5205078,0.89599603,-6.238174973399536,-29.41779697639735,-129.0092714316969,0.42818528,-0.1566332,0.20618987,-0.86579967
05b1e954-e0de-4e6a-bec5-f040535b11d2,1747059633894620443,13.731003,-1.3942719,9.191513,0.08251953,-0.51464844,0.8974609,-6.193165675840039,-29.310937127504516,-128.90102222861714,0.42897984,-0.15611102,0.20539212,-0.8656903
05b1e954-e0de-4e6a-bec5-f040535b11d2,1747059633906926443,14.40239,-1.6384125,9.374619,0.10058594,-0.5229492,0.8974609,-6.147668151414964,-29.198936595665774,-128.78941620759818,0.42980203,-0.15557124,0.20455329,-0.86557823
05b1e954-e0de-4e6a-bec5-f040535b11d2,1747059633919232443,14.890671,-1.455307,9.435654,0.08496094,-0.5234375,0.8911132,-6.110000627230817,-29.085598352695687,-128.68006030322672,0.43062228,-0.15508,0.20367892,-0.8654649
05b1e954-e0de-4e6a-bec5-f040535b11d2,1747059633931538443,15.134811,-2.1266937,9.374619,0.09472656,-0.5151367,0.90576166,-6.069633333666817,-28.967675631044997,-128.56691875362074,0.43146908,-0.15455692,0.20277546,-0.8653489
05b1e954-e0de-4e6a-bec5-f040535b11d2,1747059633943094443,15.623093,-2.248764,9.374619,0.079589844,-0.5078125,0.90087885,-6.033133219101622,-28.845028961976404,-128.457330863316,0.43229875,-0.15403792,0.2018271,-0.86524904
05b1e954-e0de-4e6a-bec5-f040535b11d2,1747059633954650443,16.050339,-1.8825531,9.309769,0.088378906,-0.5048828,0.8945312,-5.992582127466495,-28.718565582914042,-128.34351971358788,0.43315554,-0.15348007,0.20086016,-0.86514467
05b1e954-e0de-4e6a-bec5-f040535b11d2,1747059633966206443,16.414642,-1.701355,9.496689,0.088378906,-0.50341797,0.87988275,-5.954586937143468,-28.586211265343366,-128.23119187182783,0.4340091,-0.15291563,0.19984156,-0.8650527
05b1e954-e0de-4e6a-bec5-f040535b11d2,1747059633976409443,15.745163,-1.5773773,9.252548,0.083984375,-0.50878906,0.8818359,-5.880125453253063,-28.339264279050784,-128.01170871010126,0.43567103,-0.15184663,0.19794436,-0.8648418
05b1e954-e0de-4e6a-bec5-f040535b11d2,1747059633986614443,14.890671,-1.3942719,9.069443,0.106933594,-0.48486328,0.8784179,-5.84787075278674,-28.219677699587283,-127.90942613397505,0.4364525,-0.15134785,0.19701785,-0.86474675
05b1e954-e0de-4e6a-bec5-f040535b11d2,1747059633996819443,14.097214,-1.6384125,9.191513,0.083984375,-0.4951172,0.88476557,-5.807591832000026,-28.110009496758487,-127.8023483646335,0.4372512,-0.1508308,0.19619228,-0.8646213
05b1e954-e0de-4e6a-bec5-f040535b11d2,1747059634007491443,13.792038,-1.3332367,9.069443,0.09765625,-0.50146484,0.88037103,-5.774466543519656,-27.99833947427594,-127.70099765093359,0.4380203,-0.15034898,0.19533257,-0.8645106
05b1e954-e0de-4e6a-bec5-f040535b11d2,1747059634018164443,13.729095,-1.2130737,8.5811615,0.09326172,-0.4794922,0.8945312,-5.740577625932109,-27.894772608522345,-127.60187912530321,0.438767,-0.1498854,0.19454142,-0.86439085
05b1e954-e0de-4e6a-bec5-f040535b11d2,1747059634028837443,14.158249,-1.2722015,8.275986,0.096191406,-0.49365234,0.8950195,-5.707447892902644,-27.780647797398558,-127.50534424364048,0.43950143,-0.14938314,0.19367093,-0.86430013
05b1e954-e0de-4e6a-bec5-f040535b11d2,1747059634036288443,14.036179,-0.6008148,8.333206,0.08935547,-0.46923828,0.90576166,-5.6381124537432825,-27.555307548214255,-127.31547644018927,0.44094002,-0.14835577,0.19197057,-0.8641237
05b1e954-e0de-4e6a-bec5-f040535b11d2,1747059634043737443,14.219284,-0.41770935,7.844925,0.09277344,-0.46728516,0.89794916,-5.60209482838294,-27.440406224882683,-127.22398438851252,0.44163263,-0.14781556,0.19111423,-0.86405236
05b1e954-e0de-4e6a-bec5-f040535b11d2,1747059634051186443,13.975143,-0.29563904,7.173538,0.09423828,-0.48046875,0.8989257,-5.568704120888507,-27.327534818836792,-127.14008397049372,0.4422715,-0.14728844,0.19027382,-0.8640011
05b1e954-e0de-4e6a-bec5-f040535b11d2,1747059634058635443,13.912201,-0.541687,6.872177,0.09765625,-0.48242188,0.9018554,-5.538885964807985,-27.214712753100546,-127.05916488302003,0.44289395,-0.14678207,0.1894245,-0.863955
05b1e954-e0de-4e6a-bec5-f040535b11d2,1747059634070379443,14.463425,-0.23460388,6.5670013,0.08496094,-0.49169922,0.9228515,-5.505498313498559,-27.101086648861347,-126.97913317430432,0.44350442,-0.14624296,0.18858464,-0.863917
05b1e954-e0de-4e6a-bec5-f040535b11d2,1747059634082123443,15.134811,-0.53977966,6.750107,0.08496094,-0.48535156,0.94238275,-5.47106529682387,-26.979054956854483,-126.89779850599658,0.4441278,-0.1456656,0.18768376,-0.86389047
05b1e954-e0de-4e6a-bec5-f040535b11d2,1747059634093867443,16.599655,-0.53977966,6.750107,0.08251953,-0.4912109,0.9277343,-5.434040525052889,-26.847443976624316,-126.8141389729257,0.44476992,-0.14503543,0.18671769,-0.8638755
05b1e954-e0de-4e6a-bec5-f040535b11d2,1747059634104507443,18.306732,-0.541687,6.9904327,0.084472656,-0.48632812,0.9414062,-5.393920057475943,-26.69675294477606,-126.72687634980903,0.44544482,-0.14431512,0.18561445,-0.8638862
05b1e954-e0de-4e6a-bec5-f040535b11d2,1747059634115145443,20.017624,-0.66185,6.872177,0.07910156,-0.47802734,0.93994135,-5.356027562499976,-26.53412346996667,-126.63749923763096,0.44614598,-0.14356846,0.1844098,-0.86390674
05b1e954-e0de-4e6a-bec5-f040535b11d2,1747059634125783443,21.299362,-0.7839203,7.478714,0.08642578,-0.48144528,0.9365234,-5.319429578712859,-26.361652424827064,-126.5448742633373,0.4468792,-0.14279768,0.18312198,-0.86392945
05b1e954-e0de-4e6a-bec5-f040535b11d2,1747059634135717443,22.642136,-0.9059906,8.031845,0.063964844,-0.47802734,0.90869135,-5.238975318310075,-25.99741060639257,-126.34454993062458,0.44845858,-0.1411451,0.18041208,-0.86395276
05b1e954-e0de-4e6a-bec5-f040535b11d2,1747059634145651443,23.069382,-1.5773773,8.947372,0.067871094,-0.50097656,0.91357416,-5.197498198125898,-25.81689661585289,-126.23468921621694,0.4493188,-0.14032626,0.17906417,-0.8639196
05b1e954-e0de-4e6a-bec5-f040535b11d2,1747059634155585443,23.37265,-1.8234253,9.8629,0.064941406,-0.47851562,0.9233398,-5.153119960091805,-25.630908418330506,-126.11599712575622,0.4502442,-0.13947552,0.17767654,-0.8638621
05b1e954-e0de-4e6a-bec5-f040535b11d2,1747059634165915443,24.349213,-1.9454956,10.839462,0.046875,-0.4794922,0.9560546,-5.101678428428127,-25.43629174710032,-125.98531456358943,0.45125392,-0.13855395,0.17623806,-0.86377823
05b1e954-e0de-4e6a-bec5-f040535b11d2,1747059634176243443,25.510788,-2.0656586,11.93428,0.048828125,-0.45263672,0.95312494,-5.044497336864187,-25.230524504833003,-125.84233116538545,0.45235386,-0.13756166,0.17472444,-0.863669
05b1e954-e0de-4e6a-bec5-f040535b11d2,1747059634186571443,27.09961,-2.1896362,13.097763,0.044921875,-0.4506836,0.95556635,-4.9833012279577025,-25.009283429773085,-125.68711088803066,0.4535486,-0.13649422,0.17309663,-0.8635395
05b1e954-e0de-4e6a-bec5-f040535b11d2,1747059634195322443,29.356003,-1.0890961,15.295029,0.048339844,-0.4501953,0.9575195,-4.846301383975296,-24.539818785189812,-125.35086077054319,0.45612654,-0.1341685,0.16967164,-0.8632259
05b1e954-e0de-4e6a-bec5-f040535b11d2,1747059634204075443,30.14946,-1.0890961,16.088486,0.04638672,-0.4580078,0.9492187,-4.767270770521116,-24.29816673983576,-125.16687798722131,0.457524,-0.13291411,0.16793492,-0.86301994
05b1e954-e0de-4e6a-bec5-f040535b11d2,1747059634212828443,31.126022,-1.0890961,17.55333,0.046875,-0.44970703,0.94482416,-4.684247370046012,-24.045006417755733,-124.97023068271558,0.45901793,-0.13159697,0.16611604,-0.8627805
05b1e954-e0de-4e6a-bec5-f040535b11d2,1747059634221581443,31.917572,-0.6637573,18.712997,0.053222656,-0.4345703,0.94726557,-4.5979915408065075,-23.78727193664518,-124.76283218496567,0.46059138,-0.1302459,0.16426751,-0.86250085
05b1e954-e0de-4e6a-bec5-f040535b11d2,1747059634231974443,32.6519,-0.53977966,19.872665,0.042968754,-0.43798825,0.9487304,-4.5044261089457605,-23.523295640266333,-124.54487020830334,0.4622381,-0.12882273,0.16239394,-0.8621884
05b1e954-e0de-4e6a-bec5-f040535b11d2,1747059634242367443,33.323288,-1.3332367,21.215439,0.048339844,-0.42919922,0.94775385,-4.412004273702993,-23.25227720905764,-124.31414052581316,0.46398714,-0.1273902,0.16045341,-0.861825
05b1e954-e0de-4e6a-bec5-f040535b11d2,1747059634252760443,33.813477,-1.2130737,22.436142,0.037109375,-0.42333984,0.9404296,-4.3163908175979655,-22.97759361557648,-124.07302072753356,0.46581265,-0.12592477,0.15849233,-0.8614184
05b1e954-e0de-4e6a-bec5-f040535b11d2,1747059634263289443,34.35898,-1.0299683,23.656845,0.037109375,-0.4086914,0.9511718,-4.213906291808569,-22.69859246544884,-123.8196592184567,0.46772382,-0.12439801,0.1565194,-0.86096525
05b1e954-e0de-4e6a-bec5-f040535b11d2,1747059634273819443,35.152435,-1.335144,25.304794,0.02197266,-0.40625,0.9487304,-4.110684448007952,-22.415131251009377,-123.55295856334732,0.46973744,-0.12285614,0.1545082,-0.86045355
05b1e954-e0de-4e6a-bec5-f040535b11d2,1747059634284349443,35.640717,-1.2741089,26.464462,0.036621097,-0.3935547,0.949707,-4.000174350965297,-22.12805048484776,-123.27384117359051,0.4718372,-0.1212512,0.15249375,-0.85989153
05b1e954-e0de-4e6a-bec5-f040535b11d2,1747059634291857443,37.046432,-0.7839203,29.088974,0.032714847,-0.3852539,0.9418945,-3.777156706693928,-21.521136287784767,-122.68386556562184,0.4762918,-0.11790197,0.14821723,-0.8586483
05b1e954-e0de-4e6a-bec5-f040535b11d2,1747059634299366443,37.168503,-0.4787445,29.821396,0.036132816,-0.37695312,0.9487304,-3.6614407441416392,-21.21274731419196,-122.37671089281903,0.4786083,-0.11617311,0.1460602,-0.8579652
05b1e954-e0de-4e6a-bec5-f040535b11d2,1747059634306875443,37.654877,-0.05340576,30.309677,0.03808594,-0.36572266,0.9414062,-3.547715191323016,-20.89955986557312,-122.06805347084942,0.48094162,-0.114428684,0.14386667,-0.8572652
05b1e954-e0de-4e6a-bec5-f040535b11d2,1747059634314384443,37.412643,0.68092346,30.122757,0.05273438,-0.35009766,0.93457025,-3.435916163257616,-20.582087597772365,-121.7621300913346,0.48325944,-0.112664685,0.14164507,-0.856565
05b1e954-e0de-4e6a-bec5-f040535b11d2,1747059634326011443,36.619186,0.55885315,30.553818,0.06298828,-0.3408203,0.9174804,-3.330800444896782,-20.27748417533861,-121.45888667595646,0.4855587,-0.11098795,0.139504,-0.8558347
05b1e954-e0de-4e6a-bec5-f040535b11d2,1747059634337638443,35.032272,0.0705719,30.675888,0.0546875,-0.33642578,0.9042968,-3.2246772806893427,-19.984833056656726,-121.15407682332574,0.48786187,-0.109343335,0.13746448,-0.85506624
05b1e954-e0de-4e6a-bec5-f040535b11d2,1747059634349265443,33.506393,-0.9059906,31.225204,0.043945312,-0.34521484,0.9228515,-3.1209205434711067,-19.703504828739394,-120.84234985410615,0.49021322,-0.10776055,0.13550223,-0.85423523
05b1e954-e0de-4e6a-bec5-f040535b11d2,1747059634359955443,32.835007,-1.5773773,31.5876,0.036621094,-0.31689453,0.9467773,-3.0287553965671457,-19.42862919927591,-120.52947509629765,0.49258268,-0.10628141,0.13354638,-0.85336506
05b1e954-e0de-4e6a-bec5-f040535b11d2,1747059634370645443,31.795502,-2.1896362,32.258987,0.05517578,-0.31591797,0.9614257,-2.941119551026422,-19.15662728022159,-120.21291733128618,0.49498224,-0.104841255,0.13159756,-0.852457
05b1e954-e0de-4e6a-bec5-f040535b11d2,1747059634381335443,31.858444,-2.614975,32.86934,0.036621097,-0.31445312,0.9594726,-2.860131040539321,-18.881747172000626,-119.89213002192903,0.49742106,-0.103431806,0.12960298,-0.85151464
05b1e954-e0de-4e6a-bec5-f040535b11d2,1747059634388835443,33.323288,-3.7136078,34.093857,0.03320313,-0.30615234,0.9677734,-2.7013881100803103,-18.320351955475147,-119.23707783588894,0.5024033,-0.10056685,0.12552623,-0.84954125
05b1e954-e0de-4e6a-bec5-f040535b11d2,1747059634396337443,33.813477,-3.65448,34.765244,0.027832035,-0.30273438,0.96044916,-2.6237701039758425,-18.031505601282813,-118.89971384536543,0.50497055,-0.09910455,0.12342401,-0.8484984
05b1e954-e0de-4e6a-bec5-f040535b11d2,1747059634403839443,34.542084,-3.9596558,35.49385,0.02734375,-0.28173828,0.97119135,-2.5495753920848303,-17.73182960093054,-118.55755717015002,0.50758016,-0.09761257,0.1212312,-0.84742975
05b1e954-e0de-4e6a-bec5-f040535b11d2,1747059634411341443,34.29985,-3.774643,36.348343,0.041015625,-0.28271484,0.9589843,-2.477976809351638,-17.435008638207194,-118.20948942719676,0.5102319,-0.09614507,0.11905239,-0.8463132
05b1e954-e0de-4e6a-bec5-f040535b11d2,1747059634420104443,33.93364,-3.5915375,36.65352,0.031738285,-0.27539062,0.9418945,-2.4053229977987334,-17.141856910653885,-117.85667231590548,0.51291275,-0.09467743,0.11691095,-0.8451559
05b1e954-e0de-4e6a-bec5-f040535b11d2,1747059634428867443,33.19931,-3.4103394,37.389755,0.048828125,-0.2866211,0.949707,-2.3349484983077997,-16.854500164937882,-117.50220214076847,0.51560193,-0.093240686,0.11481031,-0.8439664
05b1e954-e0de-4e6a-bec5-f040535b11d2,1747059634437630443,32.346725,-3.3473969,37.511826,0.05664063,-0.28466797,0.93701166,-2.2687044582561264,-16.580538681487123,-117.14719422653752,0.518289,-0.09188175,0.11279887,-0.84273994
05b1e954-e0de-4e6a-bec5-f040535b11d2,1747059634446393443,31.246185,-3.3454895,37.878036,0.051757816,-0.26416016,0.9311523,-2.2021111924244723,-16.31123659170419,-116.79073689828073,0.5209806,-0.09053017,0.11083122,-0.84148675
05b1e954-e0de-4e6a-bec5-f040535b11d2,1747059634452792443,30.210495,-3.9577484,37.878036,0.053222656,-0.2685547,0.92675775,-2.1419599014091304,-16.055421829781327,-116.43452767990821,0.5236661,-0.08927447,0.10894257,-0.8401996
05b1e954-e0de-4e6a-bec5-f040535b11d2,1747059634459191443,29.233932,-4.262924,38.000107,0.03955078,-0.25732422,0.9438476,-2.082365336812845,-15.808157170190526,-116.07759212521118,0.52634937,-0.088050865,0.10712205,-0.83888507
05b1e954-e0de-4e6a-bec5-f040535b11d2,1747059634465590443,28.1353,-4.8732758,38.183212,0.040039062,-0.26416016,0.95507807,-2.031565750947159,-15.567534706109303,-115.71942542463076,0.5290426,-0.086911924,0.10531699,-0.83753717
05b1e954-e0de-4e6a-bec5-f040535b11d2,1747059634471989443,27.585983,-4.995346,38.8546,0.040527344,-0.26904297,0.9575195,-1.9817579888637864,-15.339095064333508,-115.35797148519443,0.5317505,-0.08582827,0.10360183,-0.83614683
05b1e954-e0de-4e6a-bec5-f040535b11d2,1747059634478388443,26.182175,-5.1784515,38.78975,0.040527347,-0.26953125,0.96582025,-1.9385108533410453,-15.119694148041386,-114.99728021788052,0.53444993,-0.08482307,0.10193023,-0.8347326
05b1e954-e0de-4e6a-bec5-f040535b11d2,1747059634487867443,24.837494,-5.241394,38.183212,0.05078125,-0.2553711,0.9438476,-1.9030706655409377,-14.911494690558667,-114.64349289565575,0.537096,-0.0839106,0.10031584,-0.8333208
05b1e954-e0de-4e6a-bec5-f040535b11d2,1747059634497346443,23.008347,-4.995346,36.96251,0.059570312,-0.2685547,0.9335937,-1.8727966792974153,-14.721481572421363,-114.30048627811526,0.5396549,-0.08310187,0.09882366,-0.83192575
05b1e954-e0de-4e6a-bec5-f040535b11d2,1747059634506825443,20.81108,-4.6901703,35.43663,0.07128906,-0.25830078,0.93457025,-1.8495290423886082,-14.552319254476659,-113.97113920262048,0.54210633,-0.08242183,0.0974652,-0.8305588
05b1e954-e0de-4e6a-bec5-f040535b11d2,1747059634516304443,17.881393,-4.629135,34.212112,0.067871094,-0.25195312,0.9208984,-1.8301530854084602,-14.407994308771302,-113.65576708769979,0.5444438,-0.08186815,0.09628298,-0.8292214
05b1e954-e0de-4e6a-bec5-f040535b11d2,1747059634525783443,15.134811,-3.774643,32.258987,0.072753906,-0.2602539,0.9257812,-1.812802593041703,-14.2851201869696,-113.35943803060454,0.5466312,-0.08140895,0.09526366,-0.8279443
05b1e954-e0de-4e6a-bec5-f040535b11d2,1747059634535537443,12.937546,-3.408432,30.065536,0.072753906,-0.25878906,0.9252929,-1.7944814290065665,-14.182802769864933,-113.08286257692905,0.5486621,-0.08101949,0.09441456,-0.8267355
05b1e954-e0de-4e6a-bec5-f040535b11d2,1747059634545291443,10.250092,-3.1051636,27.7462,0.08300781,-0.2553711,0.9438476,-1.7815316509872763,-14.099618464371993,-112.82759216244678,0.55053186,-0.08073901,0.09369522,-0.825601
05b1e954-e0de-4e6a-bec5-f040535b11d2,1747059634555045443,8.481979,-3.042221,25.4879,0.08300781,-0.23388672,0.9433593,-1.7742673928820818,-14.033284266204692,-112.59306294516574,0.55224645,-0.08056049,0.09308629,-0.82454157
05b1e954-e0de-4e6a-bec5-f040535b11d2,1747059634564799443,6.893158,-2.6779175,23.35167,0.091796875,-0.24414062,0.9570312,-1.771458777963732,-13.97706628209193,-112.37907190924561,0.55381,-0.080443844,0.092544205,-0.8235647
05b1e954-e0de-4e6a-bec5-f040535b11d2,1747059634574553443,5.918503,-2.3097992,21.398544,0.08300781,-0.2524414,0.9755859,-1.7682249090222013,-13.92991181861263,-112.18242309841924,0.55524254,-0.08035213,0.092082314,-0.8226604
05b1e954-e0de-4e6a-bec5-f040535b11d2,1747059634585516443,4.2705536,-2.4318695,19.441605,0.071777344,-0.23291016,0.95800775,-1.7667096229864159,-13.892746242652755,-112.00527574732526,0.55653024,-0.08030402,0.091698125,-0.8218374
05b1e954-e0de-4e6a-bec5-f040535b11d2,1747059634596484443,2.9888153,-2.0656586,17.614365,0.07519531,-0.23535156,0.95556635,-1.7675969057957934,-13.865966639484276,-111.84570285128379,0.5576877,-0.080308385,0.09138952,-0.8210864
05b1e954-e0de-4e6a-bec5-f040535b11d2,1747059634607452443,1.4019012,-2.3708344,15.66124,0.07861328,-0.2421875,0.9643554,-1.7723146638459015,-13.853049958569335,-111.70327488218186,0.5587178,-0.08039306,0.091173925,-0.82040155
05b1e954-e0de-4e6a-bec5-f040535b11d2,1747059634618420443,-0.3681183,-2.248764,13.76915,0.08105469,-0.23535156,0.9589843,-1.7834206999619229,-13.856511146125685,-111.58123705133546,0.5595983,-0.080586374,0.09105884,-0.81979495
05b1e954-e0de-4e6a-bec5-f040535b11d2,1747059634629017443,-1.5888214,-1.8825531,11.571884,0.07910156,-0.22705078,0.9614257,-1.7932639894754197,-13.869503624165164,-111.47739021607315,0.5603426,-0.08080242,0.09103078,-0.8192683
05b1e954-e0de-4e6a-bec5-f040535b11d2,1747059634639614443,-2.626419,-1.455307,9.740829,0.076171875,-0.23242188,0.98437494,-1.8042270528513336,-13.890274507404502,-111.3911896657501,0.56095743,-0.08105032,0.09106511,-0.8188191
05b1e954-e0de-4e6a-bec5-f040535b11d2,1747059634650211443,-4.091263,-1.2722015,7.7266693,0.06738281,-0.23779297,0.9692382,-1.815016070641851,-13.9196514994585,-111.32178194815123,0.5614477,-0.08132565,0.091173515,-0.81844366
05b1e954-e0de-4e6a-bec5-f040535b11d2,1747059634661649443,-4.579544,-1.821518,3.8776398,0.063964844,-0.21582031,0.9755859,-1.8506394197839708,-13.982362747176717,-111.23331634689609,0.56207734,-0.08195614,0.091384806,-0.8179248
05b1e954-e0de-4e6a-bec5-f040535b11d2,1747059634673089443,-4.8236847,-1.455307,3.0269623,0.061035156,-0.21728516,0.9858398,-1.8714157464093302,-14.015674860043053,-111.2082668980746,0.5622566,-0.08228689,0.09150333,-0.81775516
05b1e954-e0de-4e6a-bec5-f040535b11d2,1747059634684529443,-4.579544,-1.6384125,1.9893646,0.061035156,-0.22851562,0.9936523,-1.8927120716332557,-14.04673927259226,-111.19266196243296,0.5623699,-0.08260286,0.09160988,-0.81763345
05b1e954-e0de-4e6a-bec5-f040535b11d2,1747059634692208443,-4.398346,-1.701355,1.0128021,0.05029297,-0.22851562,0.9804687,-1.9138658499731491,-14.079127650688651,-111.18499869017764,0.5624258,-0.08291793,0.09173226,-0.8175494
05b1e954-e0de-4e6a-bec5-f040535b11d2,1747059634699889443,-4.7016144,-2.0656586,0.036239624,0.05859375,-0.24609375,0.9799804,-1.9398904089259932,-14.112130226513061,-111.18711476357275,0.56241554,-0.0832629,0.09184219,-0.81750906
05b1e954-e0de-4e6a-bec5-f040535b11d2,1747059634707570443,-4.6424866,-2.3117065,-0.57411194,0.045410156,-0.23486328,0.9799804,-1.9669111468294778,-14.150096930844436,-111.19333796942087,0.5623744,-0.08363586,0.09198575,-0.8174831
05b1e954-e0de-4e6a-bec5-f040535b11d2,1747059634715251443,-5.1288605,-2.0656586,-0.9403229,0.03808594,-0.2470703,0.9614257,-1.9921578512110816,-14.191882037887181,-111.20240777192438,0.56230974,-0.08401245,0.09216745,-0.8174685
05b1e954-e0de-4e6a-bec5-f040535b11d2,1747059634725822443,-5.8612823,-2.4318695,-1.493454,0.042968754,-0.24902344,0.9716796,-2.0193972257253616,-14.244232282946605,-111.21611025502665,0.56220853,-0.08445096,0.09241844,-0.8174646
05b1e954-e0de-4e6a-bec5-f040535b11d2,1747059634736393443,-6.652832,-2.6779175,-1.9817352,0.048339844,-0.23632812,0.98144525,-2.0499004111565746,-14.302999953488746,-111.23595570818776,0.5620631,-0.08493896,0.09270399,-0.81748176
05b1e954-e0de-4e6a-bec5-f040535b11d2,1747059634746964443,-6.837845,-2.614975,-2.2830963,0.03564453,-0.25634766,0.9990234,-2.0819174231901614,-14.359614771023143,-111.25958905696744,0.5618929,-0.085424036,0.092969686,-0.817518
05b1e954-e0de-4e6a-bec5-f040535b11d2,1747059634758456443,-6.412506,-2.1896362,-2.954483,0.036132812,-0.25439453,1.0141602,-2.1400832037583277,-14.466331775617531,-111.31090635350967,0.56152225,-0.08631683,0.09348684,-0.8176199
05b1e954-e0de-4e6a-bec5-f040535b11d2,1747059634769947443,-5.311966,-2.3708344,-2.653122,0.040039062,-0.25585938,1.0048828,-2.168738720798881,-14.51221675049167,-111.33749912407386,0.5613336,-0.08672282,0.093695,-0.8176827
05b1e954-e0de-4e6a-bec5-f040535b11d2,1747059634781438443,-4.2743683,-1.8825531,-2.8362274,0.041503906,-0.24853516,1.0161133,-2.1910811494210374,-14.547513395793096,-111.36354106212286,0.5611489,-0.087032594,0.093858026,-0.81775784
05b1e954-e0de-4e6a-bec5-f040535b11d2,1747059634789134443,-2.506256,-1.4572144,-3.1986237,0.044433594,-0.27392578,1.0048828,-2.2099870590612993,-14.569581960809877,-111.39115206616988,0.5609566,-0.08725217,0.09394448,-0.81785643
05b1e954-e0de-4e6a-bec5-f040535b11d2,1747059634796828443,-1.5277863,-1.5773773,-3.3245087,0.043945312,-0.27001953,1.0214844,-2.232488011442228,-14.584589421994353,-111.42220361130053,0.56074613,-0.087460235,0.09396551,-0.8179761
05b1e954-e0de-4e6a-bec5-f040535b11d2,1747059634804522443,-0.67329407,-1.6384125,-3.2596588,0.040039062,-0.26367188,1.0087891,-2.2521522323187293,-14.592170641631515,-111.45192060701449,0.56054646,-0.08761307,0.09394631,-0.81809884
05b1e954-e0de-4e6a-bec5-f040535b11d2,1747059634812216443,-0.18501282,-1.7604828,-3.1414032,0.041992188,-0.26708984,1.0004883,-2.2720916587889373,-14.594932244345827,-111.48183865796402,0.56034786,-0.08774432,0.093891464,-0.8182271
05b1e954-e0de-4e6a-bec5-f040535b11d2,1747059634822519443,0.3643036,-1.5163422,-3.5037994,0.03320313,-0.25683594,0.99462885,-2.2951442002233664,-14.596269162508204,-111.5131876101498,0.5601422,-0.087889746,0.09381236,-0.81836134
05b1e954-e0de-4e6a-bec5-f040535b11d2,1747059634832822443,0.4234314,-1.57547,-3.4427643,0.053222653,-0.26953125,1.0063477,-2.3161538214087165,-14.590068836577771,-111.5437105838073,0.5599444,-0.087984756,0.09368867,-0.8185007
05b1e954-e0de-4e6a-bec5-f040535b11d2,1747059634843125443,0.7915497,-1.3942719,-3.3245087,0.05273438,-0.24853516,0.9980468,-2.3395717053173346,-14.58216613945395,-111.57426705077891,0.559749,-0.08808876,0.09354108,-0.81864
05b1e954-e0de-4e6a-bec5-f040535b11d2,1747059634854819443,0.54740906,-1.5163422,-3.4427643,0.05761719,-0.25683594,0.99755853,-2.391697497318899,-14.562933717005093,-111.63852858909733,0.55934143,-0.088315666,0.0931981,-0.8189332
05b1e954-e0de-4e6a-bec5-f040535b11d2,1747059634866512443,0.24223328,-0.72288513,-3.6296844,0.048828125,-0.26123047,0.9804687,-2.410912696558894,-14.559757082507689,-111.67211190306415,0.5591185,-0.08841032,0.09310743,-0.8190855
05b1e954-e0de-4e6a-bec5-f040535b11d2,1747059634878205443,-0.18501282,-0.6008148,-3.9920807,0.052246097,-0.24853516,0.99951166,-2.4280822108357323,-14.555367368596198,-111.70872107023938,0.5588728,-0.08848208,0.09302044,-0.8192553
05b1e954-e0de-4e6a-bec5-f040535b11d2,1747059634888641443,-0.12397766,0.0705719,-4.2362213,0.049804688,-0.25,0.9833984,-2.440974005317974,-14.551662687289133,-111.74763389568207,0.5586068,-0.088524766,0.09296105,-0.8194389
05b1e954-e0de-4e6a-bec5-f040535b11d2,1747059634899077443,-0.24604797,0.55885315,-4.301071,0.051757812,-0.2421875,0.98974603,-2.451361221591274,-14.549864906605555,-111.78803794253635,0.5583271,-0.088557586,0.09292874,-0.81962955
05b1e954-e0de-4e6a-bec5-f040535b11d2,1747059634909513443,-0.6122589,0.86402893,-4.3582916,0.044921875,-0.2475586,0.98925775,-2.456693504974328,-14.549861348721265,-111.82959909128688,0.5580341,-0.08856201,0.09293486,-0.8198279
05b1e954-e0de-4e6a-bec5-f040535b11d2,1747059634917135443,-0.7953644,1.3523102,-4.7245026,0.04150391,-0.2553711,0.9716796,-2.4628213257430245,-14.55140760885683,-111.91849373096514,0.5574022,-0.08854121,0.09298483,-0.8202542
05b1e954-e0de-4e6a-bec5-f040535b11d2,1747059634924757443,-0.9174347,1.291275,-4.541397,0.041015625,-0.23925781,0.9858398,-2.4639498914162337,-14.552476066693183,-111.96016936146019,0.5571043,-0.088520624,0.093019225,-0.82045496
05b1e954-e0de-4e6a-bec5-f040535b11d2,1747059634932379443,-1.1615753,1.2302399,-4.2362213,0.052246097,-0.23876953,0.9716796,-2.464821020934981,-14.556118650546917,-112.00064120713978,0.5568135,-0.08851156,0.09307243,-0.82064724
05b1e954-e0de-4e6a-bec5-f040535b11d2,1747059634940001443,-1.6498566,1.1692047,-4.419327,0.042480472,-0.24609374,0.9755859,-2.4637246804174673,-14.564070976359371,-112.04201620912113,0.5565126,-0.088508405,0.09316689,-0.820841
05b1e954-e0de-4e6a-bec5-f040535b11d2,1747059634950394443,-2.0771027,1.5964508,-3.74794,0.040527344,-0.24511719,0.980957,-2.457861706471398,-14.577669357919577,-112.07725738391692,0.556249,-0.08850321,0.09332035,-0.8210027
05b1e954-e0de-4e6a-bec5-f040535b11d2,1747059634960787443,-2.0771027,1.5964508,-3.4427643,0.028320316,-0.24023438,0.9877929,-2.4432166853497916,-14.58836338395123,-112.10778221049327,0.5560134,-0.08842488,0.0934919,-0.82115126
05b1e954-e0de-4e6a-bec5-f040535b11d2,1747059634971180443,-2.626419,0.98609924,-2.8934479,0.025390625,-0.23388672,0.97900385,-2.4340061541051026,-14.600741380116524,-112.13417926957042,0.5558109,-0.08839688,0.093645975,-0.82127374
05b1e954-e0de-4e6a-bec5-f040535b11d2,1747059634981683443,-2.565384,0.98609924,-2.0999908,0.016113281,-0.23388672,0.97119135,-2.4235517975830576,-14.618823393749397,-112.15492074018204,0.5556453,-0.08839197,0.09384275,-0.8213639
05b1e954-e0de-4e6a-bec5-f040535b11d2,1747059634992185443,-2.565384,0.68092346,-1.367569,0.027832035,-0.25830078,0.9936523,-2.4113170549505263,-14.635563321228483,-112.16819570553528,0.5555323,-0.0883739,0.09403274,-0.8214206
05b1e954-e0de-4e6a-bec5-f040535b11d2,1747059635002687443,-2.6893616,0.4348755,-0.26893616,0.021484375,-0.25878906,0.99414057,-2.400365293606598,-14.654333657424852,-112.17236826395252,0.55548453,-0.08838223,0.09422409,-0.82143
05b1e954-e0de-4e6a-bec5-f040535b11d2,1747059635011254443,-1.5296936,-0.35858154,1.619339,0.0078125,-0.2475586,0.99755853,-2.371423632288096,-14.688090951577465,-112.15222633027217,0.55558914,-0.08835373,0.09459171,-0.8213201
05b1e954-e0de-4e6a-bec5-f040535b11d2,1747059635019824443,-0.7324219,-0.35858154,2.7217865,0.01416016,-0.2548828,0.9985351,-2.3559734038446316,-14.694873980217407,-112.12771583956582,0.5557488,-0.08829588,0.09469652,-0.8212062
05b1e954-e0de-4e6a-bec5-f040535b11d2,1747059635028394443,-0.37002563,-0.9689331,3.8776398,0.0034179725,-0.24560545,0.9746093,-2.340126521816549,-14.696374956428302,-112.09250523032506,0.5559873,-0.08821865,0.094757065,-0.82104605
05b1e954-e0de-4e6a-bec5-f040535b11d2,1747059635036964443,-0.18501282,-1.2722015,4.6749115,0.008300785,-0.25927734,0.98632807,-2.328432718072409,-14.700285863250475,-112.04922809409656,0.5562858,-0.088189505,0.09480862,-0.820841
05b1e954-e0de-4e6a-bec5-f040535b11d2,1747059635047315443,-0.18501282,-1.7604828,5.8956146,0.008300781,-0.25732422,0.9858398,-2.314951862633418,-14.703315459175235,-111.99408067707525,0.55666816,-0.08815319,0.09485343,-0.8205805
05b1e954-e0de-4e6a-bec5-f040535b11d2,1747059635057666443,-0.06484985,-2.1896362,7.0552826,0.013183594,-0.26220703,0.98925775,-2.3057080412389546,-14.707976203952141,-111.92909585511072,0.55712354,-0.08816329,0.09488185,-0.820267
05b1e954-e0de-4e6a-bec5-f040535b11d2,1747059635068017443,0.18119812,-2.7980804,7.604599,0.010253906,-0.25195312,0.9936523,-2.3004116607100014,-14.70999884701599,-111.85778932897696,0.5576285,-0.088194184,0.09486727,-0.8199222
05b1e954-e0de-4e6a-bec5-f040535b11d2,1747059635075765443,0.48446655,-3.1661987,8.886337,0.012207031,-0.25341797,0.9877929,-2.2948038527502526,-14.707482212025438,-111.77703556805218,0.55820274,-0.08820874,0.094814345,-0.8195359
05b1e954-e0de-4e6a-bec5-f040535b11d2,1747059635083513443,0.91171265,-4.1999817,9.496689,0.021972656,-0.2709961,1.0024414,-2.297803158720282,-14.707353766485147,-111.68819927356371,0.55884045,-0.08830304,0.094730385,-0.81910074
05b1e954-e0de-4e6a-bec5-f040535b11d2,1747059635091261443,1.5239716,-4.6901703,10.656357,0.0146484375,-0.2705078,0.9990234,-2.302168515984491,-14.701874068775979,-111.590992174413,0.55954134,-0.088387996,0.09459484,-0.8186286
05b1e954-e0de-4e6a-bec5-f040535b11d2,1747059635099009443,2.1972656,-5.302429,11.388779,0.0146484375,-0.2709961,1.003418,-2.3117608184980787,-14.690210084375401,-111.48645407787232,0.5603015,-0.08848614,0.0943837,-0.8181223
05b1e954-e0de-4e6a-bec5-f040535b11d2,1747059635109614443,3.3550262,-5.666733,11.87706,0.012695316,-0.28027344,1.0097656,-2.3238211607458785,-14.670711757694919,-111.37663752637182,0.5611046,-0.08856785,0.09410019,-0.81759554
05b1e954-e0de-4e6a-bec5-f040535b11d2,1747059635120219443,4.085541,-5.912781,12.304306,0.030761719,-0.26757812,1.0112305,-2.3429085700774985,-14.645265201368877,-111.26237018338142,0.5619475,-0.088673905,0.09373614,-0.81704676
05b1e954-e0de-4e6a-bec5-f040535b11d2,1747059635130824443,5.0029755,-6.155014,12.727737,0.03710938,-0.26367188,1.0107422,-2.361434300225306,-14.607513831343352,-111.14315434079357,0.5628305,-0.088719375,0.09328289,-0.8164857
05b1e954-e0de-4e6a-bec5-f040535b11d2,1747059635142204443,6.160736,-6.2789917,12.670517,0.03466797,-0.28076172,1.0341797,-2.383516420925282,-14.565431955129537,-111.02365703722384,0.56371975,-0.088768415,0.09278098,-0.8159239
05b1e954-e0de-4e6a-bec5-f040535b11d2,1747059635153584443,7.627487,-5.727768,12.304306,0.04638672,-0.2758789,1.0234375,-2.4042195637169126,-14.510215623735906,-110.90630245324918,0.5645981,-0.08874075,0.092193685,-0.815386
05b1e954-e0de-4e6a-bec5-f040535b11d2,1747059635164964443,8.358002,-5.607605,12.304306,0.037597656,-0.27685547,1.0214844,-2.4271245624422133,-14.448834159550707,-110.79088721582488,0.5654665,-0.0886959,0.09155315,-0.8148611
05b1e954-e0de-4e6a-bec5-f040535b11d2,1747059635175276443,9.58252,-5.1193237,11.510849,0.06542969,-0.26367188,1.0004883,-2.4754936175780684,-14.303075601536587,-110.57126435839416,0.56713396,-0.088499,0.09010457,-0.8138846
05b1e954-e0de-4e6a-bec5-f040535b11d2,1747059635185588443,10.250092,-5.1193237,10.591507,0.055175785,-0.27929688,1.0024414,-2.5011433347085217,-14.22774456484079,-110.47094956583905,0.5679012,-0.088389516,0.0893632,-0.8134431
05b1e954-e0de-4e6a-bec5-f040535b11d2,1747059635195900443,10.250092,-4.3258667,9.923935,0.053710938,-0.25927734,0.99999994,-2.52664720950995,-14.148007556354958,-110.37707685776712,0.5686238,-0.088251084,0.088596344,-0.81303716
05b1e954-e0de-4e6a-bec5-f040535b11d2,1747059635203788443,10.984421,-4.5681,8.947372,0.060546875,-0.26904297,0.99169916,-2.555243198905408,-14.06421591566788,-110.29213156502655,0.5692864,-0.08810654,0.087792344,-0.81267625
05b1e954-e0de-4e6a-bec5-f040535b11d2,1747059635211676443,10.864258,-4.3258667,7.9669952,0.063964844,-0.25634766,0.99169916,-2.582621371435697,-13.975877468411054,-110.21644685880712,0.56988364,-0.08792275,0.086969346,-0.812366
05b1e954-e0de-4e6a-bec5-f040535b11d2,1747059635219564443,11.106491,-4.201889,6.9904327,0.06933594,-0.25878906,0.99462885,-2.6102312028426486,-13.886401451953189,-110.14831784047539,0.5704272,-0.08772824,0.08614309,-0.81209356
05b1e954-e0de-4e6a-bec5-f040535b11d2,1747059635227452443,11.289597,-3.8967133,6.07872,0.06542969,-0.25390625,1.0039062,-2.641747056706905,-13.7944887975725,-110.08865012719598,0.5709139,-0.08754209,0.08528669,-0.81186193
05b1e954-e0de-4e6a-bec5-f040535b11d2,1747059635236076443,11.167526,-3.5305023,5.220413,0.07519531,-0.25976562,0.9858398,-2.6726206087406315,-13.702230289298853,-110.03754424778562,0.57133883,-0.087342486,0.0844377,-0.8116732
05b1e954-e0de-4e6a-bec5-f040535b11d2,1747059635244700443,11.104584,-3.4713745,4.365921,0.072265625,-0.2529297,0.9907226,-2.707601173519183,-13.614297342087001,-109.99513443938692,0.57170254,-0.087186284,0.0836057,-0.8115201
05b1e954-e0de-4e6a-bec5-f040535b11d2,1747059635253324443,10.921478,-3.288269,3.0269623,0.07763672,-0.24853516,0.9990234,-2.7383542235573533,-13.525207505167057,-109.96152609482164,0.5720005,-0.08698744,0.0827933,-0.8114147
05b1e954-e0de-4e6a-bec5-f040535b11d2,1747059635261948443,11.350632,-2.981186,2.538681,0.07861328,-0.25,0.9912109,-2.7711088162941273,-13.430686697119848,-109.93567599732985,0.5722465,-0.08676984,0.08193823,-0.81135136
05b1e954-e0de-4e6a-bec5-f040535b11d2,1747059635268054443,11.71875,-2.9830933,1.3179779,0.06689453,-0.24853516,1.0117188,-2.8030255224959184,-13.332607514213494,-109.91815894457417,0.57243353,-0.086522385,0.08106836,-0.81133324
05b1e954-e0de-4e6a-bec5-f040535b11d2,1747059635274160443,12.75444,-2.7370453,0.5245209,0.07421875,-0.24072266,1.0078125,-2.8326267275109536,-13.228531646005461,-109.90753021045347,0.57257175,-0.086223714,0.080172606,-0.81135654
05b1e954-e0de-4e6a-bec5-f040535b11d2,1747059635280266443,13.120651,-2.7370453,-0.3299713,0.068847656,-0.24804688,1.003418,-2.865577395339306,-13.111641935125823,-109.90499497679687,0.57265913,-0.08587945,0.07917504,-0.8114293
05b1e954-e0de-4e6a-bec5-f040535b11d2,1747059635286372443,13.54599,-2.368927,-1.1234283,0.06933594,-0.24169922,0.9936523,-2.8979435714274553,-13.000345488108769,-109.91006031741844,0.572689,-0.08555351,0.07822574,-0.8115347
05b1e954-e0de-4e6a-bec5-f040535b11d2,1747059635292478443,13.669968,-2.7980804,-1.9817352,0.060546875,-0.23583984,1.0009766,-2.9336542993194605,-12.88397965733284,-109.92313779444689,0.5726653,-0.08522079,0.0772295,-0.81168187
05b1e954-e0de-4e6a-bec5-f040535b11d2,1747059635302259443,13.912201,-2.494812,-2.527237,0.051757812,-0.23242188,1.0205078,-2.961090198511417,-12.766586890536768,-109.93830485508728,0.57262045,-0.08482317,0.076268665,-0.811846
05b1e954-e0de-4e6a-bec5-f040535b11d2,1747059635312040443,15.684128,-2.5539398,-2.4051666,0.0625,-0.24121094,1.0317383,-2.9881709357170454,-12.633624405811712,-109.9539591365636,0.5725765,-0.08434576,0.07519897,-0.81202644
05b1e954-e0de-4e6a-bec5-f040535b11d2,1747059635321821443,17.759323,-2.4318695,-2.8934479,0.057128906,-0.24316406,1.0249023,-3.015371744715258,-12.486522346089284,-109.97060964464933,0.57252944,-0.08379873,0.07402853,-0.81222385
05b1e954-e0de-4e6a-bec5-f040535b11d2,1747059635331602443,19.285202,-2.248764,-2.4051666,0.06347656,-0.23730469,1.019043,-3.0424932779381963,-12.32587145520482,-109.98613649916668,0.57249343,-0.08318497,0.07276091,-0.8124268
05b1e954-e0de-4e6a-bec5-f040535b11d2,1747059635341383443,20.627975,-2.5539398,-3.0765533,0.05126953,-0.23925781,1.0180664,-3.0706319525195274,-12.152957108946945,-110.003898457426,0.5724447,-0.08251652,0.07140217,-0.8126499
05b1e954-e0de-4e6a-bec5-f040535b11d2,1747059635353385443,21.726608,-2.7370453,-2.8934479,0.064453125,-0.23925781,1.0317383,-3.09660422990016,-11.974600016651834,-110.01870200507628,0.57241535,-0.081807844,0.07001297,-0.81286305
05b1e954-e0de-4e6a-bec5-f040535b11d2,1747059635365387443,22.825241,-2.6760101,-2.8934479,0.05273438,-0.23535156,1.0297852,-3.1264877249409326,-11.781466947115243,-110.03321106971796,0.5723931,-0.08105411,0.06849839,-0.8130832
05b1e954-e0de-4e6a-bec5-f040535b11d2,1747059635377389443,24.47319,-2.614975,-2.588272,0.046875,-0.23339844,1.0415039,-3.1491813554225847,-11.575038659425156,-110.04455466009402,0.57239085,-0.08018555,0.06692235,-0.8133021
05b1e954-e0de-4e6a-bec5-f040535b11d2,1747059635389391443,26.24321,-2.4318695,-2.2220612,0.049804688,-0.2265625,1.0380859,-3.1677616199267047,-11.361033676825363,-110.05258218459555,0.5724096,-0.07925225,0.06531016,-0.8135115
05b1e954-e0de-4e6a-bec5-f040535b11d2,1747059635399815443,27.708054,-2.7980804,-2.0999908,0.049804688,-0.22070312,1.0297852,-3.190340866963242,-11.130201856100529,-110.05737259802068,0.57245576,-0.07826574,0.06355545,-0.81371343
05b1e954-e0de-4e6a-bec5-f040535b11d2,1747059635410239443,29.23584,-2.6779175,-1.6117096,0.04589844,-0.22998047,1.0170898,-3.2091505410690306,-10.884876960677843,-110.0576507558982,0.57253295,-0.07718293,0.06171284,-0.81390435
05b1e954-e0de-4e6a-bec5-f040535b11d2,1747059635420663443,30.332565,-2.7370453,-1.4286041,0.041503906,-0.21386719,1.0151367,-3.229560020912961,-10.628674573916486,-110.05591701695143,0.5726249,-0.07605831,0.059783027,-0.81408954
05b1e954-e0de-4e6a-bec5-f040535b11d2,1747059635428369443,30.820847,-2.8591156,-0.45204163,0.051757812,-0.21240234,1.0107422,-3.2679794997554605,-10.111851289328799,-110.0364179504786,0.5729121,-0.07377681,0.0558927,-0.8143738
05b1e954-e0de-4e6a-bec5-f040535b11d2,1747059635436075443,30.210495,-3.3473969,0.15830994,0.045410156,-0.203125,0.99169916,-3.28842673070956,-9.859164766323607,-110.0202908946435,0.573095,-0.072675325,0.053977963,-0.8144733
05b1e954-e0de-4e6a-bec5-f040535b11d2,1747059635443781443,29.661179,-3.2863617,0.7648468,0.040527344,-0.20214844,0.97412103,-3.3079800975312326,-9.612953151431396,-109.99826800686137,0.57331467,-0.07160151,0.052110225,-0.81453544
05b1e954-e0de-4e6a-bec5-f040535b11d2,1747059635451487443,28.50151,-3.5915375,1.253128,0.043457028,-0.19580078,0.98437494,-3.3287840068971954,-9.373228692634653,-109.97270123717243,0.5735555,-0.0705694,0.05028047,-0.81457096
05b1e954-e0de-4e6a-bec5-f040535b11d2,1747059635461945443,27.708054,-3.5305023,1.9245148,0.05126953,-0.21289062,0.99414057,-3.351573599816768,-9.144619878156794,-109.94099088378357,0.5738357,-0.06960824,0.04851654,-0.81456333
05b1e954-e0de-4e6a-bec5-f040535b11d2,1747059635472403443,27.402878,-3.774643,2.412796,0.05810547,-0.19335938,1.0253906,-3.3779922551459336,-8.91832103293329,-109.90569239990946,0.5741395,-0.06868465,0.046749078,-0.814531
05b1e954-e0de-4e6a-bec5-f040535b11d2,1747059635482861443,27.282715,-3.1661987,2.5959015,0.051757816,-0.17626953,1.0083008,-3.399108642371612,-8.69145162722815,-109.86844497730905,0.57445216,-0.06772002,0.045003343,-0.81448966
05b1e954-e0de-4e6a-bec5-f040535b11d2,1747059635491488443,27.280807,-3.408432,2.5959015,0.05419922,-0.1899414,1.0043945,-3.4208903831851862,-8.470158546882342,-109.82895472120431,0.5747773,-0.066787414,0.04329316,-0.81442994
05b1e954-e0de-4e6a-bec5-f040535b11d2,1747059635500115443,27.402878,-3.2863617,3.0841827,0.05273438,-0.18408203,1.0092773,-3.443849337773806,-8.24559985097389,-109.78607530033095,0.57512474,-0.065846756,0.041552316,-0.814352
05b1e954-e0de-4e6a-bec5-f040535b11d2,1747059635508742443,27.036667,-3.1032562,3.332138,0.060546875,-0.17480469,0.99169916,-3.465682056801825,-8.023942743120609,-109.74325024849543,0.5754681,-0.06491107,0.039838374,-0.81427014
05b1e954-e0de-4e6a-bec5-f040535b11d2,1747059635517369443,25.876999,-3.408432,3.332138,0.057617188,-0.16357422,0.9858398,-3.490677232098209,-7.806337066616048,-109.69870834624102,0.5758215,-0.0640172,0.038136996,-0.81417257
05b1e954-e0de-4e6a-bec5-f040535b11d2,1747059635527661443,24.837494,-3.0403137,3.6373138,0.06054688,-0.1665039,0.9829101,-3.51219528968945,-7.601764210693429,-109.65323927058553,0.5761761,-0.06316259,0.036545992,-0.8140614
05b1e954-e0de-4e6a-bec5-f040535b11d2,1747059635537953443,23.618698,-3.2253265,3.698349,0.071777344,-0.14892578,0.98974603,-3.53836812970531,-7.399822176968766,-109.60834802158634,0.57652533,-0.062352616,0.03495118,-0.8139466
05b1e954-e0de-4e6a-bec5-f040535b11d2,1747059635548245443,23.555756,-3.1661987,3.4542084,0.068359375,-0.13085938,1.0097656,-3.5660458781845605,-7.201036712016996,-109.56469934286586,0.5768634,-0.061567396,0.03337246,-0.8138331
05b1e954-e0de-4e6a-bec5-f040535b11d2,1747059635558792443,23.61679,-2.6779175,3.4542084,0.079589844,-0.13916016,1.0400391,-3.5880186789673005,-7.003386521499752,-109.52199501932671,0.57719064,-0.060745765,0.031831555,-0.8137246
05b1e954-e0de-4e6a-bec5-f040535b11d2,1747059635569339443,24.168015,-2.3708344,3.0841827,0.08984375,-0.14111328,1.0375977,-3.6098366867988494,-6.797736161158516,-109.48140562076644,0.5775011,-0.05988109,0.030236095,-0.8136292
05b1e954-e0de-4e6a-bec5-f040535b11d2,1747059635579886443,24.59526,-1.455307,2.7217865,0.06933594,-0.13623047,1.0512695,-3.630357046607177,-6.594353064810425,-109.4439259953465,0.5777866,-0.05901653,0.02866543,-0.81354654
05b1e954-e0de-4e6a-bec5-f040535b11d2,1747059635588523443,26.426315,-0.3566742,1.0128021,0.07373047,-0.14111328,1.0532227,-3.6445591217099502,-6.160382652918674,-109.38661065795561,0.57822055,-0.05695284,0.02547618,-0.8134914
05b1e954-e0de-4e6a-bec5-f040535b11d2,1747059635597161443,27.708054,0.0705719,0.58555603,0.083496094,-0.140625,1.0341797,-3.6458599648795325,-5.929805034664769,-109.36451790529767,0.57838684,-0.055808693,0.02381795,-0.8135028
05b1e954-e0de-4e6a-bec5-f040535b11d2,1747059635605799443,28.499603,-0.05340576,0.09727478,0.07128906,-0.12109375,1.0444336,-3.6464967672923687,-5.691340797210441,-109.34776324860081,0.5785129,-0.054618295,0.022109848,-0.8135421
05b1e954-e0de-4e6a-bec5-f040535b11d2,1747059635614437443,28.867722,0.009536743,-0.45204163,0.07324219,-0.12402344,1.0307617,-3.6455185750668706,-5.449716442439215,-109.3346782991004,0.5786102,-0.053399157,0.020389378,-0.8135988
05b1e954-e0de-4e6a-bec5-f040535b11d2,1747059635624713443,29.539108,0.009536743,-0.5168915,0.06542969,-0.111816406,1.0244141,-3.6450031952214044,-5.194476187424003,-109.32183337385717,0.57870334,-0.05211415,0.018569991,-0.8136594
05b1e954-e0de-4e6a-bec5-f040535b11d2,1747059635634989443,30.14946,-0.23460388,-0.69999695,0.067871094,-0.12841797,1.0253906,-3.645360675691725,-4.944855977522855,-109.31068049828235,0.57878184,-0.050862707,0.016787129,-0.81372154
05b1e954-e0de-4e6a-bec5-f040535b11d2,1747059635645265443,30.51567,-0.11253357,-0.8792877,0.07324219,-0.109375,1.0375977,-3.648191060894492,-4.684905729982738,-109.3009717324621,0.57884747,-0.04957606,0.014919068,-0.8137907
05b1e954-e0de-4e6a-bec5-f040535b11d2,1747059635655826443,31.492233,-0.4787445,-1.2454987,0.072265625,-0.10986328,1.0473633,-3.652515909635774,-4.416848641115141,-109.29358353643563,0.5788934,-0.04825838,0.0129868975,-0.81387025
05b1e954-e0de-4e6a-bec5-f040535b11d2,1747059635666386443,32.527924,-0.5989075,-1.7337799,0.06738281,-0.099609375,1.0458984,-3.657596384012748,-4.147370077623286,-109.28893540782742,0.57891667,-0.046938144,0.011042019,-0.81395966
05b1e954-e0de-4e6a-bec5-f040535b11d2,1747059635676946443,33.750534,-0.72288513,-1.9168854,0.05908203,-0.095703125,1.0473633,-3.662860979506876,-3.861579923241259,-109.28672989215329,0.5789183,-0.04553646,0.008981175,-0.8140635
05b1e954-e0de-4e6a-bec5-f040535b11d2,1747059635687247443,35.276413,-1.3332367,-1.8596649,0.06689453,-0.09472656,1.0292969,-3.684005042437502,-3.2705413724331973,-109.2798911221171,0.5789262,-0.04270952,0.004666521,-0.81424725
05b1e954-e0de-4e6a-bec5-f040535b11d2,1747059635697549443,35.518646,-1.6403198,-2.0999908,0.06640625,-0.07714844,1.0234375,-3.6963455616469245,-2.968363885223527,-109.27733724664023,0.578917,-0.041274443,0.0024532788,-0.81433743
05b1e954-e0de-4e6a-bec5-f040535b11d2,1747059635707851443,35.823822,-2.494812,-2.2220612,0.05712891,-0.07373047,1.0170898,-3.710034030755295,-2.6616713137848906,-109.27485090205931,0.57890236,-0.039825823,0.00020117965,-0.8144236
05b1e954-e0de-4e6a-bec5-f040535b11d2,1747059635716490443,35.70366,-2.1266937,-1.8596649,0.063964844,-0.06591797,1.0292969,-3.7265428675792767,-2.3538297323787765,-109.2708387097674,0.5788937,-0.038391072,-0.0020737834,-0.8144961
05b1e954-e0de-4e6a-bec5-f040535b11d2,1747059635725130443,36.252975,-2.5539398,-2.2220612,0.07080078,-0.049316406,1.0649414,-3.7478184262059875,-2.048631829735071,-109.26908073289837,0.5788644,-0.03700321,-0.0043531638,-0.81457216
05b1e954-e0de-4e6a-bec5-f040535b11d2,1747059635733770443,37.47368,-2.7370453,-2.2220612,0.068847656,-0.06347656,1.0541992,-3.768577442595351,-1.7273056045238167,-109.26628458785916,0.578835,-0.035529964,-0.0067449063,-0.8146423
05b1e954-e0de-4e6a-bec5-f040535b11d2,1747059635742410443,39.2437,-2.3708344,-2.4700165,0.07324219,-0.043457028,1.0610352,-3.7870735056252873,-1.3964209030096189,-109.26402004812921,0.578795,-0.033992082,-0.009192915,-0.81471246
05b1e954-e0de-4e6a-bec5-f040535b11d2,1747059635752590443,41.196823,-2.7370453,-2.1648407,0.0703125,-0.04736328,1.0507812,-3.809122079601008,-1.049294887550163,-109.25796789900849,0.57877284,-0.032396756,-0.011775309,-0.8147599
05b1e954-e0de-4e6a-bec5-f040535b11d2,1747059635762770443,42.295456,-2.7370453,-2.4051666,0.068359375,-0.033691403,1.0361328,-3.829783851636668,-0.6904188414557465,-109.25193562506124,0.578742,-0.030731725,-0.014433965,-0.81480354
05b1e954-e0de-4e6a-bec5-f040535b11d2,1747059635772950443,43.33496,-2.9830933,-1.9168854,0.05810547,-0.016601562,1.0488281,-3.8505944446354032,-0.3207237033177378,-109.24387648739963,0.5787166,-0.02901227,-0.017170485,-0.8148316
05b1e954-e0de-4e6a-bec5-f040535b11d2,1747059635780704443,45.1622,-4.081726,-0.8792877,0.056640625,-0.016601562,1.0493164,-3.9000894964685062,0.44374516119791274,-109.21473167842652,0.5787292,-0.0254981,-0.022863101,-0.8148004
05b1e954-e0de-4e6a-bec5-f040535b11d2,1747059635788461443,46.32187,-4.447937,-0.3299713,0.046386722,-3.7252903e-09,1.03125,-3.931546231808167,0.8434915889542627,-109.18993782714574,0.5787903,-0.023696423,-0.025868775,-0.81472147
05b1e954-e0de-4e6a-bec5-f040535b11d2,1747059635796218443,46.993256,-4.6310425,0.09727478,0.05419922,-0.001953125,1.0351562,-3.967702393449421,1.2456361763582786,-109.16098060653734,0.5788704,-0.021913413,-0.028914865,-0.814612
05b1e954-e0de-4e6a-bec5-f040535b11d2,1747059635803975443,48.15483,-4.507065,0.8907318,0.06103516,-0.0039062537,1.0302734,-4.0052941755648535,1.6561813548254531,-109.12487713643293,0.57898927,-0.020094326,-0.032027796,-0.814458
05b1e954-e0de-4e6a-bec5-f040535b11d2,1747059635814564443,49.009323,-4.507065,0.8907318,0.06152344,0.016113278,1.0444336,-4.042889570757422,2.077739603243022,-109.0866469369134,0.57910997,-0.018216655,-0.035217624,-0.8142846
05b1e954-e0de-4e6a-bec5-f040535b11d2,1747059635825153443,50.7164,-4.5700073,1.253128,0.07080078,0.038085938,1.0385742,-4.085256811512199,2.5117931014949857,-109.04397062633996,0.5792462,-0.016305733,-0.038519055,-0.81407875
05b1e954-e0de-4e6a-bec5-f040535b11d2,1747059635835742443,51.265717,-4.3258667,1.4362335,0.07421875,0.03564453,1.0424805,-4.125254118314806,2.956185422980782,-109.00007747241526,0.57937723,-0.014322442,-0.041879892,-0.81385684
05b1e954-e0de-4e6a-bec5-f040535b11d2,1747059635847253443,52.24228,-4.3258667,1.619339,0.06347656,0.05078125,1.0229492,-4.162007597578586,3.4121320728110636,-108.95406261717126,0.5795088,-0.012253882,-0.045304194,-0.8136135
05b1e954-e0de-4e6a-bec5-f040535b11d2,1747059635858764443,53.22075,-4.507065,1.6841888,0.062499996,0.064453125,1.0112305,-4.197734351026201,3.8729794188941775,-108.906313704361,0.57963955,-0.010149472,-0.048755683,-0.8133497
05b1e954-e0de-4e6a-bec5-f040535b11d2,1747059635870275443,52.97661,-3.9577484,2.0503998,0.07128906,0.083984375,0.9882812,-4.23525493703136,4.336863522834397,-108.85336532962476,0.57979345,-0.008036942,-0.052235454,-0.8130476
05b1e954-e0de-4e6a-bec5-f040535b11d2,1747059635880495443,50.29106,-3.774643,2.6607513,0.067871094,0.10058594,0.961914,-4.312187989962042,5.253444509162718,-108.74225369024396,0.58010715,-0.0038694274,-0.059116736,-0.8123828
05b1e954-e0de-4e6a-bec5-f040535b11d2,1747059635890716443,48.03276,-3.6525726,3.2100677,0.067871094,0.11669921,0.96874994,-4.347762732173727,5.693841403052331,-108.68214686326675,0.5802896,-0.0018486176,-0.06241171,-0.8120131
05b1e954-e0de-4e6a-bec5-f040535b11d2,1747059635900937443,46.32187,-3.288269,3.7555695,0.059570312,0.11865234,0.9677734,-4.379172411021163,6.10945949617672,-108.61937379862503,0.58049595,8.050725e-05,-0.06550742,-0.81162375
05b1e954-e0de-4e6a-bec5-f040535b11d2,1747059635908608443,44.309616,-3.042221,4.858017,0.052246097,0.1381836,0.94287103,-4.410897766815484,6.507299594901287,-108.5476974150821,0.5807656,0.0019255066,-0.068476036,-0.81118345
05b1e954-e0de-4e6a-bec5-f040535b11d2,1747059635916281443,41.685104,-2.5539398,5.285263,0.063964844,0.13916016,0.9516601,-4.436705167354805,6.888703705784374,-108.47496564123153,0.581047,0.0037328862,-0.07129548,-0.8107326
05b1e954-e0de-4e6a-bec5-f040535b11d2,1747059635923954443,39.424896,-1.701355,5.651474,0.064941406,0.16455078,0.9624023,-4.460768570146568,7.246065796975245,-108.39743507613396,0.5813698,0.005436465,-0.07393329,-0.81025517
05b1e954-e0de-4e6a-bec5-f040535b11d2,1747059635931627443,37.47368,-1.2722015,6.2618256,0.07714844,0.16455078,0.9589843,-4.4794159841709975,7.590517375192601,-108.31771891297154,0.5817125,0.007117319,-0.07644949,-0.80976254
05b1e954-e0de-4e6a-bec5-f040535b11d2,1747059635942037443,36.19194,-0.4787445,6.5021515,0.084472656,0.16259766,0.9560546,-4.493528400122596,7.920054548857406,-108.23586659205878,0.5820763,0.008758809,-0.07883452,-0.8092562
05b1e954-e0de-4e6a-bec5-f040535b11d2,1747059635952447443,34.973145,0.4348755,6.9904327,0.07763672,0.16357422,0.9545898,-4.505562479179361,8.235694096730827,-108.14892010967647,0.58248067,0.0103507405,-0.081107825,-0.8087216
05b1e954-e0de-4e6a-bec5-f040535b11d2,1747059635962857443,33.140182,0.43678284,6.872177,0.08496094,0.18359375,0.9697265,-4.5166847146662645,8.538153232284627,-108.0646761708669,0.58286995,0.011882943,-0.08328118,-0.808199
05b1e954-e0de-4e6a-bec5-f040535b11d2,1747059635974610443,32.346725,1.9626617,6.5670013,0.08496094,0.20117188,1.0019531,-4.5227736803539305,9.123307294316906,-107.90164127373673,0.5836212,0.014964836,-0.087399244,-0.80717015
05b1e954-e0de-4e6a-bec5-f040535b11d2,1747059635986363443,34.35898,2.2659302,5.95665,0.088378906,0.17529297,1.0419922,-4.517937875408221,9.416726668605486,-107.82387207640225,0.5839695,0.016566928,-0.08942047,-0.8066654
05b1e954-e0de-4e6a-bec5-f040535b11d2,1747059635998116443,37.107468,2.6340485,5.651474,0.095703125,0.17236328,1.034668,-4.514643265514657,9.735781000319495,-107.74636837291915,0.5842923,0.018292516,-0.091626346,-0.8061466
05b1e954-e0de-4e6a-bec5-f040535b11d2,1747059636008575443,38.816452,3.3664703,4.9800873,0.091796875,0.1689453,1.0092773,-4.502703082608892,10.065791149059667,-107.67380657133626,0.5845747,0.020134106,-0.09386264,-0.80564064
05b1e954-e0de-4e6a-bec5-f040535b11d2,1747059636019037443,39.913177,3.3035278,4.3087006,0.09033203,0.18310547,1.0029297,-4.488720095752319,10.408070094374834,-107.60334001054801,0.58483016,0.022054162,-0.096171625,-0.80513245
05b1e954-e0de-4e6a-bec5-f040535b11d2,1747059636029499443,40.096283,3.2424927,4.732132,0.08496094,0.18847656,1.0039062,-4.478242102174807,10.755519361764415,-107.53267403127572,0.5850751,0.023979057,-0.098531455,-0.804614
05b1e954-e0de-4e6a-bec5-f040535b11d2,1747059636037036443,40.22026,2.6340485,5.220413,0.072265625,0.18164062,0.9902343,-4.447426702140127,11.45226570941781,-107.39464718474365,0.585533,0.02791253,-0.1032048,-0.80356747
05b1e954-e0de-4e6a-bec5-f040535b11d2,1747059636044572443,39.97612,2.6340485,6.5670013,0.042968754,0.18847655,0.9824218,-4.42991311627595,11.795835999459841,-107.3141349305434,0.5858406,0.029883575,-0.10548944,-0.80297554
05b1e954-e0de-4e6a-bec5-f040535b11d2,1747059636052108443,38.69438,2.1457672,7.909775,0.05029297,0.20214844,0.9648437,-4.417815349606664,12.136124155102141,-107.22101459557838,0.5862289,0.03181448,-0.10777185,-0.8023146
05b1e954-e0de-4e6a-bec5-f040535b11d2,1747059636059644443,36.800385,2.3269653,9.496689,0.03955078,0.21435547,0.9599609,-4.406325759046916,12.459299072508214,-107.11585815458764,0.5867097,0.03366747,-0.109930895,-0.80159426
05b1e954-e0de-4e6a-bec5-f040535b11d2,1747059636069898443,35.640717,3.0021667,11.510849,0.032226566,0.23681639,0.96582025,-4.3932101027004435,12.772626121315945,-106.99541621655766,0.58730215,0.0354994,-0.112004355,-0.80079395
05b1e954-e0de-4e6a-bec5-f040535b11d2,1747059636080152443,35.21347,4.219055,13.7043,0.025878906,0.24365234,0.9833984,-4.368756575614019,13.07976232652479,-106.37811835575488,0.5913694,0.03787625,-0.11380904,-0.79743034
05b1e954-e0de-4e6a-bec5-f040535b11d2,1747059636090406443,35.58159,4.770279,15.722275,0.019042972,0.2416992,1.0029297,-4.34578223701733,13.384291519560213,-106.22199571843969,0.59221435,0.039783724,-0.11574139,-0.7964316
05b1e954-e0de-4e6a-bec5-f040535b11d2,1747059636099245443,35.33554,6.05011,18.285751,0.026367191,0.25634766,0.98632807,-4.316394326961882,13.693106328962614,-105.07661358623515,0.59990174,0.04277736,-0.11729947,-0.79027134
05b1e954-e0de-4e6a-bec5-f040535b11d2,1747059636108084443,34.236908,7.1487427,20.296097,0.029785156,0.25732422,0.9638671,-4.287400586286395,13.995244281862746,-104.38436190491407,0.6044224,0.045297008,-0.11894514,-0.786431
05b1e954-e0de-4e6a-bec5-f040535b11d2,1747059636116923443,32.71103,7.8811646,22.375107,0.03564453,0.2446289,0.95263666,-4.258650534000152,14.278271587316047,-104.16779070939484,0.6056789,0.047232836,-0.12063272,-0.7850922
05b1e954-e0de-4e6a-bec5-f040535b11d2,1747059636125762443,30.14946,8.615494,23.778915,0.032714847,0.26464844,0.9335937,-4.225671351153788,14.5463600167992,-102.90935319683331,0.61404896,0.050232556,-0.12173731,-0.7782034
05b1e954-e0de-4e6a-bec5-f040535b11d2,1747059636136372443,28.684616,9.408951,25.976181,0.025390625,0.27392578,0.9492187,-4.187597284096223,14.79605056531198,-102.14167409385304,0.6190527,0.052669127,-0.12286598,-0.77388865
05b1e954-e0de-4e6a-bec5-f040535b11d2,1747059636146982443,27.219772,10.202408,27.86827,0.04199219,0.26953125,0.94287103,-4.154249877632778,15.02925446873685,-101.87630868130515,0.6206558,0.054456484,-0.12412276,-0.7722787
05b1e954-e0de-4e6a-bec5-f040535b11d2,1747059636157592443,25.449753,10.93483,29.268265,0.040527344,0.27490234,0.94287103,-4.122970143324845,15.248562182843022,-101.59893626581089,0.622345,0.056172475,-0.12528414,-0.77060705
05b1e954-e0de-4e6a-bec5-f040535b11d2,1747059636167812443,23.31543,11.238098,30.309677,0.051757812,0.29345703,0.9248046,-4.093728162989238,15.45281466162284,-101.31035263738194,0.62411594,0.05780983,-0.12634279,-0.7688789
05b1e954-e0de-4e6a-bec5-f040535b11d2,1747059636178031443,20.994186,11.301041,31.347275,0.051269535,0.27441406,0.9311523,-4.065154018511687,15.637583941242696,-101.0148747873147,0.62594557,0.059348106,-0.12726437,-0.76712036
05b1e954-e0de-4e6a-bec5-f040535b11d2,1747059636188250443,19.58847,11.665344,32.445908,0.058593746,0.2866211,0.92968744,-4.041068297141561,15.797558558767935,-100.23350944097976,0.63102865,0.061266217,-0.12778029,-0.76270664
05b1e954-e0de-4e6a-bec5-f040535b11d2,1747059636195775443,16.599655,11.0569,34.212112,0.059570312,0.2836914,0.93505853,-4.011091176313597,16.084092080720417,-97.62232538106127,0.64798266,0.06599638,-0.12803599,-0.7479102
05b1e954-e0de-4e6a-bec5-f040535b11d2,1747059636203302443,15.073776,10.141373,34.643173,0.068847656,0.2861328,0.93749994,-4.012790369728617,16.206290841871983,-96.22930311866355,0.6568971,0.06824533,-0.12801607,-0.73989224
05b1e954-e0de-4e6a-bec5-f040535b11d2,1747059636210829443,13.853073,9.592056,34.154892,0.06982422,0.29541016,0.93945307,-4.019861351624253,16.31526620639759,-94.8314617688919,0.6657505,0.07039678,-0.12790471,-0.731752
05b1e954-e0de-4e6a-bec5-f040535b11d2,1747059636218356443,12.75444,9.531021,34.093857,0.072753906,0.30273438,0.9433593,-4.029385555704843,16.416145970407864,-93.42384942169541,0.67456996,0.072502755,-0.1277173,-0.7234549
05b1e954-e0de-4e6a-bec5-f040535b11d2,1747059636230109443,11.533737,8.981705,33.483505,0.083496094,0.2993164,0.946289,-4.046002070308389,16.507893245813424,-92.00702856324293,0.68334496,0.07452557,-0.12747711,-0.7150071
05b1e954-e0de-4e6a-bec5-f040535b11d2,1747059636241862443,10.374069,8.92067,32.201767,0.09472656,0.30126953,0.9624023,-4.066762875200334,16.588734801831922,-90.60188162070567,0.691949,0.07644837,-0.12717247,-0.7065333
05b1e954-e0de-4e6a-bec5-f040535b11d2,1747059636253615443,9.397507,8.615494,30.916214,0.09814453,0.3017578,0.9389648,-4.086808946616282,16.66505031598311,-89.75465894805049,0.6970468,0.077732906,-0.12718798,-0.70136046
05b1e954-e0de-4e6a-bec5-f040535b11d2,1747059636263873443,7.8086853,8.125305,30.004501,0.09863281,0.30273438,0.93457025,-4.106677239134306,16.728736535407112,-89.46771517798052,0.6987077,0.078322254,-0.1274988,-0.6995836
05b1e954-e0de-4e6a-bec5-f040535b11d2,1747059636274132443,6.1626434,7.577896,29.211044,0.08544922,0.3017578,0.9169921,-4.127783181238111,16.776164759710493,-88.10471784917664,0.7069023,0.080001496,-0.1269714,-0.691207
05b1e954-e0de-4e6a-bec5-f040535b11d2,1747059636284391443,4.085541,6.843567,28.291702,0.09326172,0.31054688,0.918457,-4.153475317513167,16.80742719854334,-86.76988570373027,0.71484184,0.08151896,-0.12637539,-0.68292385
05b1e954-e0de-4e6a-bec5-f040535b11d2,1747059636292116443,0.120162964,5.4416656,26.155472,0.08886719,0.31152344,0.9199218,-4.208753633054618,16.82726053714439,-84.17269371860574,0.7300521,0.08416811,-0.124961674,-0.66657645
05b1e954-e0de-4e6a-bec5-f040535b11d2,1747059636299841443,-1.285553,5.012512,24.999619,0.091308594,0.3046875,0.92675775,-4.23900386386751,16.813877876479864,-82.81558952921579,0.73787785,0.0853814,-0.12407503,-0.6579146
05b1e954-e0de-4e6a-bec5-f040535b11d2,1747059636307566443,-3.238678,4.524231,24.328232,0.1015625,0.30566406,0.92675775,-4.272452402105521,16.78247797270564,-81.4835771845759,0.74547637,0.08642211,-0.12311613,-0.649337
05b1e954-e0de-4e6a-bec5-f040535b11d2,1747059636315291443,-4.7016144,3.976822,22.863388,0.09375,0.3017578,0.9208984,-4.306177557939922,16.73957663910364,-80.71990342743624,0.74980164,0.086767666,-0.12251999,-0.6444049
05b1e954-e0de-4e6a-bec5-f040535b11d2,1747059636325621443,-6.5956116,3.730774,21.82579,0.09667969,0.30419922,0.9287109,-4.342530812215705,16.684152784060757,-80.51922845332541,0.75095546,0.08641144,-0.12229908,-0.64315
05b1e954-e0de-4e6a-bec5-f040535b11d2,1747059636335951443,-7.7552795,3.0593872,20.296097,0.106933594,0.3046875,0.9365234,-4.380877547059262,16.61758672496387,-80.33077446845066,0.7520496,0.08595665,-0.12204045,-0.64198047
05b1e954-e0de-4e6a-bec5-f040535b11d2,1747059636346281443,-8.9149475,2.937317,18.648148,0.107910156,0.3173828,0.9360351,-4.416004232079611,16.543581843139897,-80.15730521946584,0.75307024,0.08545391,-0.12173261,-0.6409087
05b1e954-e0de-4e6a-bec5-f040535b11d2,1747059636358291443,-10.196686,2.632141,17.55333,0.104003906,0.28955078,0.92675775,-4.452287990178655,16.458145649737563,-79.99560115920505,0.75403565,0.08485551,-0.121379904,-0.6399192
05b1e954-e0de-4e6a-bec5-f040535b11d2,1747059636370299443,-11.478424,2.571106,16.023636,0.10888672,0.29882812,0.95019525,-4.482564588002311,16.360506058199675,-79.29909791312072,0.7579939,0.08477196,-0.120528094,-0.63539904
05b1e954-e0de-4e6a-bec5-f040535b11d2,1747059636382307443,-12.271881,2.571106,14.558792,0.10449219,0.2915039,0.9355468,-4.510193733224821,16.2525554480928,-78.04280049109592,0.7650122,0.085209794,-0.11919333,-0.62712723
05b1e954-e0de-4e6a-bec5-f040535b11d2,1747059636392618443,-13.429642,2.023697,11.99913,0.095703125,0.28955078,0.9575195,-4.555178085802111,16.022687724808065,-77.27277281446736,0.7694315,0.08420748,-0.11768965,-0.62212014
05b1e954-e0de-4e6a-bec5-f040535b11d2,1747059636402931443,-13.368607,2.3288727,10.839462,0.09814453,0.30322266,0.980957,-4.571813024569494,15.904917322051128,-76.08079252337771,0.77598137,0.08453351,-0.116297804,-0.6141513
05b1e954-e0de-4e6a-bec5-f040535b11d2,1747059636413244443,-12.943268,2.2659302,9.98497,0.10595703,0.28857422,0.98974603,-4.584190752065529,15.78388141937265,-75.9943534616047,0.7765722,0.0837276,-0.115678936,-0.6136315
05b1e954-e0de-4e6a-bec5-f040535b11d2,1747059636423166443,-12.81929,2.023697,8.947372,0.099121094,0.26220703,0.9794921,-4.595829358039305,15.661295674083464,-75.37243833377703,0.7800211,0.08345075,-0.11465936,-0.60947216
05b1e954-e0de-4e6a-bec5-f040535b11d2,1747059636433089443,-12.760162,2.0828247,8.275986,0.103515625,0.2709961,0.96289057,-4.602989001790887,15.54335626089538,-74.21847200528256,0.78624785,0.08374764,-0.11325206,-0.6016432
05b1e954-e0de-4e6a-bec5-f040535b11d2,1747059636443012443,-12.636185,2.2068024,7.6618195,0.08251953,0.26611328,0.965332,-4.611113393758183,15.428722312190873,-73.07182395394092,0.7923527,0.084035546,-0.11187928,-0.5937999
05b1e954-e0de-4e6a-bec5-f040535b11d2,1747059636451862443,-13.551712,1.1081696,6.872177,0.079589844,0.25878906,0.98437494,-4.616779678362816,15.178907424398396,-71.8825164146189,0.79875314,0.08340847,-0.109782875,-0.5856485
05b1e954-e0de-4e6a-bec5-f040535b11d2,1747059636460712443,-14.162064,0.8029938,6.444931,0.083984375,0.265625,0.9721679,-4.626345665575237,15.051994107324944,-71.83231884006837,0.7991443,0.0825158,-0.10917428,-0.585355
05b1e954-e0de-4e6a-bec5-f040535b11d2,1747059636469562443,-15.140533,0.49591064,5.8956146,0.08154297,0.26464844,0.97070307,-4.635391749023164,14.919378439449005,-71.78809690793334,0.7995109,0.0815794,-0.108538315,-0.58510387
05b1e954-e0de-4e6a-bec5-f040535b11d2,1747059636478412443,-16.542435,0.19264221,5.4683685,0.08496094,0.26464844,0.9702148,-4.645983188139609,14.77669246035834,-71.7477170104782,0.79986656,0.08056007,-0.107865795,-0.5848833
05b1e954-e0de-4e6a-bec5-f040535b11d2,1747059636488953443,-18.434525,0.37574768,5.4683685,0.0859375,0.26416016,0.9482421,-4.654941965515348,14.620350078293887,-71.71188576424711,0.8002145,0.07944814,-0.10711695,-0.58469707
05b1e954-e0de-4e6a-bec5-f040535b11d2,1747059636499494443,-19.84024,0.8010864,5.1021576,0.076660156,0.2602539,0.95556635,-4.658793667357337,14.450750173160369,-71.67871952278823,0.80056673,0.07826585,-0.106268115,-0.5845293
05b1e954-e0de-4e6a-bec5-f040535b11d2,1747059636510035443,-21.728516,0.92315674,4.6138763,0.095214844,0.25927734,0.9545898,-4.661373100185309,14.269406478022796,-71.65149141430062,0.8009008,0.077001244,-0.1053558,-0.5844047
05b1e954-e0de-4e6a-bec5-f040535b11d2,1747059636520030443,-23.866653,0.9250641,4.3087006,0.07324219,0.24414062,0.9360351,-4.661523519152851,14.072960475954769,-71.62787705939336,0.8012329,0.075638734,-0.104353294,-0.58430725
05b1e954-e0de-4e6a-bec5-f040535b11d2,1747059636530024443,-26.432037,1.0490417,3.9424896,0.08105469,0.25341797,0.9199218,-4.658991952316665,13.848936471177874,-71.60990909560154,0.80156547,0.07408989,-0.10319726,-0.58425486
05b1e954-e0de-4e6a-bec5-f040535b11d2,1747059636540018443,-28.747559,1.411438,3.4542084,0.09667969,0.2602539,0.9208984,-4.654849817393518,13.60770609365392,-71.59569210213687,0.80189526,0.07242403,-0.10194587,-0.58423096
05b1e954-e0de-4e6a-bec5-f040535b11d2,1747059636550279443,-35.280228,2.023697,2.412796,0.09472656,0.24658203,0.91601557,-4.641675619997265,13.050346356540558,-70.6816378949641,0.8071148,0.06935056,-0.0984987,-0.57797426
05b1e954-e0de-4e6a-bec5-f040535b11d2,1747059636560539443,-38.63716,2.5119781,1.4362335,0.100097656,0.22949219,0.92382807,-4.626913921432103,12.728221763630566,-70.25477796305653,0.80959755,0.06750102,-0.09653991,-0.5750439
05b1e954-e0de-4e6a-bec5-f040535b11d2,1747059636570799443,-41.50772,3.1204224,0.40245056,0.110839844,0.23828124,0.946289,-4.607712744126077,12.381850416927279,-70.27728235315917,0.8098403,0.06511579,-0.0947005,-0.5752829
05b1e954-e0de-4e6a-bec5-f040535b11d2,1747059636579552443,-44.49463,3.5476685,-0.5168915,0.10498047,0.22363281,0.95800775,-4.578734759691308,12.014132805425493,-70.31066749389242,0.8100485,0.06261921,-0.09269008,-0.57559425
05b1e954-e0de-4e6a-bec5-f040535b11d2,1747059636588306443,-46.388626,4.2819977,-1.1234283,0.106933594,0.21142578,0.9672851,-4.542129828458148,11.62041714088661,-70.35135754030073,0.81024057,0.05997089,-0.09049781,-0.57595474
05b1e954-e0de-4e6a-bec5-f040535b11d2,1747059636597060443,-47.855377,4.890442,-1.6765594,0.11669922,0.21923828,0.95800775,-4.503654683493818,11.214935659058842,-70.39805347367967,0.8104033,0.05724459,-0.0882336,-0.5763544
05b1e954-e0de-4e6a-bec5-f040535b11d2,1747059636605814443,-49.9897,5.13649,-2.588272,0.10644531,0.2080078,0.9458007,-4.462006762508325,10.797491248360208,-69.95064137530012,0.81304634,0.05482021,-0.08564822,-0.57324934
05b1e954-e0de-4e6a-bec5-f040535b11d2,1747059636616137443,-52.37007,6.296158,-3.1414032,0.09863281,0.19140625,0.9414062,-4.410193072269968,10.35698411959883,-69.02440025873216,0.8180669,0.052607413,-0.08267668,-0.5667129
05b1e954-e0de-4e6a-bec5-f040535b11d2,1747059636626460443,-55.05562,6.784439,-4.2362213,0.1015625,0.17285156,0.9443359,-4.349250647855639,9.891898900567881,-68.18504881402245,0.82262194,0.050156586,-0.07959863,-0.56075084
05b1e954-e0de-4e6a-bec5-f040535b11d2,1747059636636783443,-57.43599,7.211685,-5.212784,0.103027344,0.16259766,0.9599609,-4.288896925147079,9.39944327649208,-67.81937953975554,0.8248379,0.0471453,-0.076627836,-0.5581648
05b1e954-e0de-4e6a-bec5-f040535b11d2,1747059636647191443,-61.22017,9.347916,-8.325577,0.10253906,0.16992188,0.96826166,-4.136357766483196,8.367222463554493,-68.01980686748401,0.8247209,0.040302344,-0.07061431,-0.5596648
05b1e954-e0de-4e6a-bec5-f040535b11d2,1747059636657599443,-61.83052,10.141373,-9.66835,0.10546875,0.16308594,0.9936523,-4.047985231786115,7.838108509197424,-68.13802672328612,0.82455856,0.03684234,-0.06745125,-0.56053203
05b1e954-e0de-4e6a-bec5-f040535b11d2,1747059636668007443,-60.97603,11.17897,-11.50322,0.12597656,0.13964842,1.0151367,-3.9534010129825496,7.308365991623315,-68.27224046254378,0.82429874,0.033405095,-0.06423603,-0.5615064
05b1e954-e0de-4e6a-bec5-f040535b11d2,1747059636678309443,-59.93843,12.094498,-13.269424,0.09082031,0.118652344,1.0297852,-3.8471969223805034,6.791293906395258,-68.42108638577942,0.8239422,0.030115366,-0.060993,-0.56257635
05b1e954-e0de-4e6a-bec5-f040535b11d2,1747059636688611443,-58.778763,12.460709,-14.799118,0.09667969,0.11132812,1.0454102,-3.7346159632132454,6.279055376492417,-68.58043165791774,0.823511,0.026894435,-0.057719965,-0.5637151
05b1e954-e0de-4e6a-bec5-f040535b11d2,1747059636698913443,-56.642532,13.010025,-16.080856,0.07861328,0.08935547,1.0415039,-3.6168591946367927,5.78368866922696,-68.75035728756716,0.8229976,0.023824073,-0.05448413,-0.5649237
05b1e954-e0de-4e6a-bec5-f040535b11d2,1747059636707656443,-51.02539,11.909485,-17.48085,0.08105469,0.08544922,1.0761719,-3.377943445784536,4.849491942475488,-69.10670952659969,0.82179624,0.018127162,-0.048237957,-0.5674464
05b1e954-e0de-4e6a-bec5-f040535b11d2,1747059636716397443,-47.245026,10.627747,-17.786026,0.0703125,0.068847656,1.0683594,-3.2675034355125567,4.424453579339745,-69.28801416681874,0.821127,0.015548732,-0.045372933,-0.5687266
05b1e954-e0de-4e6a-bec5-f040535b11d2,1747059636725138443,-42.848587,9.836197,-17.969131,0.056152347,0.053222653,1.0839844,-3.163470234391569,4.032184957805762,-69.4680538330253,0.8204309,0.013182719,-0.042707145,-0.56999606
05b1e954-e0de-4e6a-bec5-f040535b11d2,1747059636733879443,-39.00528,8.979797,-18.217087,0.05419922,0.045410156,1.0820312,-3.0661374913956077,3.6754143023142123,-69.64907069327572,0.81969887,0.01104543,-0.04025778,-0.5712714
05b1e954-e0de-4e6a-bec5-f040535b11d2,1747059636744516443,-35.52437,7.8220367,-18.762589,0.045410156,0.026367188,1.0917969,-2.975522280943041,3.345291990171913,-69.83035441356603,0.8189408,0.00907278,-0.037982028,-0.5725478
05b1e954-e0de-4e6a-bec5-f040535b11d2,1747059636755153443,-32.1064,6.784439,-19.1288,0.056152347,0.029296871,1.0859375,-2.899485522736175,3.0478204781761495,-70.01234986021653,0.8181524,0.0072673745,-0.035966944,-0.57382935
